Time,Device name,Chip Time(),Acceleration X(g),Acceleration Y(g),Acceleration Z(g),Angular velocity X(°/s),Angular velocity Y(°/s),Angular velocity Z(°/s),Angle X(°),Angle Y(°),Angle Z(°),Magnetic field X(ʯt),Magnetic field Y(ʯt),Magnetic field Z(ʯt),Temperature(℃),Quaternions 0(),Quaternions 1(),Quaternions 2(),Quaternions 3()
 14:58:54.842,d3:c7:8d:a5:a9:b5, 2015-01-01 00:03:45.065, 0.028, -0.004, 1.01, -0.122, 0.305, 0, -0.192, -1.681, -122.349, -8.330, -4.900, -14.798,, 0.48203, -0.01407, -0.00583, -0.87598,
 14:58:54.844,d3:c7:8d:a5:a9:b5, 2015-01-01 00:03:45.065, 0.028, -0.005, 1.01, 0, 0.305, 0, -0.192, -1.681, -122.349, -8.330, -4.900, -14.798,, 0.48203, -0.01407, -0.00583, -0.87598,
 14:58:54.844,d3:c7:8d:a5:a9:b5, 2015-01-01 00:03:45.065, 0.029, -0.005, 1.01, 0, 0.305, 0, -0.192, -1.675, -122.349, -8.330, -4.900, -14.798,, 0.48203, -0.01407, -0.00583, -0.87598,
 14:58:54.844,d3:c7:8d:a5:a9:b5, 2015-01-01 00:03:45.065, 0.029, -0.002, 1.01, 0, 0, 0, -0.192, -1.675, -122.349, -8.330, -4.900, -14.798,, 0.48203, -0.01407, -0.00583, -0.87598,
 14:58:54.871,d3:c7:8d:a5:a9:b5, 2015-01-01 00:03:45.450, 0.032, -0.002, 1.01, 0, 0, 0, -0.192, -1.675, -122.349, -8.330, -4.900, -14.798,, 0.48203, -0.01407, -0.00583, -0.87598,
 14:58:54.871,d3:c7:8d:a5:a9:b5, 2015-01-01 00:03:45.450, 0.032, -0.004, 1.01, 0, 0, 0, -0.192, -1.675, -122.349, -8.330, -4.900, -14.798,, 0.48203, -0.01407, -0.00583, -0.87598,
 14:58:54.871,d3:c7:8d:a5:a9:b5, 2015-01-01 00:03:45.450, 0.029, -0.004, 1.01, 0, 0, 0, -0.192, -1.675, -122.349, -8.330, -4.900, -14.798,, 0.48203, -0.01407, -0.00583, -0.87598,
 14:58:54.871,d3:c7:8d:a5:a9:b5, 2015-01-01 00:03:45.450, 0.029, -0.003, 1.01, 0, 0, 0, -0.192, -1.675, -122.349, -8.330, -4.900, -14.798,, 0.48203, -0.01407, -0.00583, -0.87598,
 14:58:54.901,d3:c7:8d:a5:a9:b5, 2015-01-01 00:03:45.450, 0.03, -0.003, 1.01, 0, 0, 0, -0.192, -1.675, -122.349, -8.330, -4.900, -14.798,, 0.48203, -0.01407, -0.00583, -0.87598,
 14:58:54.901,d3:c7:8d:a5:a9:b5, 2015-01-01 00:03:45.450, 0.03, -0.004, 1.011, 0, 0.122, 0, -0.192, -1.67, -122.349, -8.330, -4.900, -14.798,, 0.48203, -0.01407, -0.00583, -0.87598,
 14:58:54.901,d3:c7:8d:a5:a9:b5, 2015-01-01 00:03:45.450, 0.026, -0.004, 1.011, 0, 0.122, 0, -0.192, -1.67, -122.349, -8.330, -4.900, -14.798,, 0.48203, -0.01407, -0.00583, -0.87598,
 14:58:54.901,d3:c7:8d:a5:a9:b5, 2015-01-01 00:03:45.450, 0.026, -0.004, 1.009, 0, 0.122, 0, -0.192, -1.67, -122.349, -8.330, -4.900, -14.798,, 0.48203, -0.01407, -0.00583, -0.87598,
 14:58:54.961,d3:c7:8d:a5:a9:b5, 2015-01-01 00:03:45.450, 0.026, -0.004, 1.009, 0, 0.122, 0, -0.192, -1.67, -122.349, -8.330, -4.900, -14.798,, 0.48203, -0.01407, -0.00583, -0.87598,
 14:58:54.961,d3:c7:8d:a5:a9:b5, 2015-01-01 00:03:45.450, 0.026, -0.004, 1.01, 0, -0.122, 0, -0.192, -1.67, -122.349, -8.330, -4.900, -14.798,, 0.48203, -0.01407, -0.00583, -0.87598,
 14:58:54.961,d3:c7:8d:a5:a9:b5, 2015-01-01 00:03:45.450, 0.028, -0.004, 1.01, 0, -0.122, 0, -0.198, -1.67, -122.349, -8.330, -4.900, -14.798,, 0.48203, -0.01407, -0.00583, -0.87598,
 14:58:54.961,d3:c7:8d:a5:a9:b5, 2015-01-01 00:03:45.450, 0.028, -0.003, 1.009, 0, -0.183, 0, -0.198, -1.67, -122.349, -8.330, -4.900, -14.798,, 0.48203, -0.01407, -0.00583, -0.87598,
 14:58:54.992,d3:c7:8d:a5:a9:b5, 2015-01-01 00:03:45.450, 0.029, -0.003, 1.009, 0, -0.183, 0, -0.198, -1.675, -122.349, -8.330, -4.900, -14.798,, 0.48203, -0.01407, -0.00583, -0.87598,
 14:58:54.992,d3:c7:8d:a5:a9:b5, 2015-01-01 00:03:45.450, 0.029, -0.003, 1.01, 0, -0.122, 0, -0.198, -1.675, -122.349, -8.330, -4.900, -14.798,, 0.48203, -0.01407, -0.00583, -0.87598,
 14:58:54.992,d3:c7:8d:a5:a9:b5, 2015-01-01 00:03:45.450, 0.029, -0.003, 1.01, 0, -0.122, 0, -0.198, -1.675, -122.355, -8.330, -4.900, -14.798,, 0.48203, -0.01407, -0.00583, -0.87598,
 14:58:54.992,d3:c7:8d:a5:a9:b5, 2015-01-01 00:03:45.450, 0.029, -0.004, 1.01, -0.061, -0.061, 0, -0.198, -1.675, -122.355, -8.330, -4.900, -14.798,, 0.48203, -0.01407, -0.00583, -0.87598,
 14:58:55.022,d3:c7:8d:a5:a9:b5, 2015-01-01 00:03:45.450, 0.031, -0.004, 1.01, -0.061, -0.061, 0, -0.198, -1.675, -122.355, -8.330, -4.900, -14.798,, 0.48203, -0.01407, -0.00583, -0.87598,
 14:58:55.022,d3:c7:8d:a5:a9:b5, 2015-01-01 00:03:45.450, 0.031, -0.005, 1.011, 0, 0, 0, -0.198, -1.675, -122.355, -8.330, -4.900, -14.798,, 0.48203, -0.01407, -0.00583, -0.87598,
 14:58:55.022,d3:c7:8d:a5:a9:b5, 2015-01-01 00:03:45.450, 0.029, -0.005, 1.011, 0, 0, 0, -0.198, -1.675, -122.355, -8.330, -4.900, -14.798,, 0.48203, -0.01407, -0.00583, -0.87598,
 14:58:55.022,d3:c7:8d:a5:a9:b5, 2015-01-01 00:03:45.450, 0.029, -0.004, 1.009, 0, -0.061, 0, -0.198, -1.675, -122.355, -8.330, -4.900, -14.798,, 0.48203, -0.01407, -0.00583, -0.87598,
 14:58:55.081,d3:c7:8d:a5:a9:b5, 2015-01-01 00:03:45.450, 0.03, -0.004, 1.009, 0, -0.061, 0, -0.198, -1.675, -122.355, -8.330, -4.900, -14.798,, 0.48203, -0.01407, -0.00583, -0.87598,
 14:58:55.081,d3:c7:8d:a5:a9:b5, 2015-01-01 00:03:45.450, 0.03, -0.003, 1.01, 0, -0.244, 0, -0.198, -1.681, -122.355, -8.330, -4.900, -14.798,, 0.48203, -0.01407, -0.00583, -0.87598,
 14:58:55.081,d3:c7:8d:a5:a9:b5, 2015-01-01 00:03:45.450, 0.03, -0.003, 1.01, 0, -0.244, 0, -0.198, -1.681, -122.355, -8.330, -4.900, -14.798,, 0.48203, -0.01407, -0.00583, -0.87598,
 14:58:55.081,d3:c7:8d:a5:a9:b5, 2015-01-01 00:03:45.450, 0.03, -0.003, 1.01, -0.061, -0.122, 0, -0.198, -1.681, -122.355, -8.330, -4.900, -14.798,, 0.48203, -0.01407, -0.00583, -0.87598,
 14:58:55.112,d3:c7:8d:a5:a9:b5, 2015-01-01 00:03:45.450, 0.029, -0.003, 1.01, -0.061, -0.122, 0, -0.198, -1.681, -122.355, -8.232, -4.998, -14.798,, 0.48203, -0.01407, -0.00583, -0.87598,
 14:58:55.112,d3:c7:8d:a5:a9:b5, 2015-01-01 00:03:45.450, 0.029, -0.004, 1.01, 0, 0, 0, -0.198, -1.681, -122.355, -8.232, -4.998, -14.798,, 0.48203, -0.01407, -0.00583, -0.87598,
 14:58:55.112,d3:c7:8d:a5:a9:b5, 2015-01-01 00:03:45.450, 0.027, -0.004, 1.01, 0, 0, 0, -0.198, -1.681, -122.355, -8.232, -4.998, -14.798,, 0.48203, -0.01407, -0.00583, -0.87598,
 14:58:55.112,d3:c7:8d:a5:a9:b5, 2015-01-01 00:03:45.450, 0.027, -0.004, 1.01, -0.061, 0, 0, -0.203, -1.681, -122.355, -8.232, -4.998, -14.798,, 0.48203, -0.01407, -0.00583, -0.87598,
 14:58:55.142,d3:c7:8d:a5:a9:b5, 2015-01-01 00:03:45.450, 0.028, -0.004, 1.01, -0.061, 0, 0, -0.203, -1.681, -122.355, -8.232, -4.998, -14.798,, 0.48203, -0.01407, -0.00583, -0.87598,
 14:58:55.142,d3:c7:8d:a5:a9:b5, 2015-01-01 00:03:45.450, 0.028, -0.004, 1.009, 0, 0, 0, -0.203, -1.681, -122.355, -8.232, -4.998, -14.798,, 0.48203, -0.01407, -0.00583, -0.87598,
 14:58:55.142,d3:c7:8d:a5:a9:b5, 2015-01-01 00:03:45.450, 0.029, -0.004, 1.009, 0, 0, 0, -0.203, -1.681, -122.355, -8.232, -4.998, -14.798,, 0.48203, -0.01407, -0.00583, -0.87598,
 14:58:55.142,d3:c7:8d:a5:a9:b5, 2015-01-01 00:03:45.450, 0.029, -0.004, 1.009, 0, 0, 0, -0.203, -1.681, -122.355, -8.232, -4.998, -14.798,, 0.48203, -0.01407, -0.00583, -0.87598,
 14:58:55.201,d3:c7:8d:a5:a9:b5, 2015-01-01 00:03:45.450, 0.029, -0.004, 1.009, 0, 0, 0, -0.203, -1.681, -122.355, -8.232, -4.998, -14.798,, 0.48199, -0.01373, -0.00549, -0.87601,
 14:58:55.201,d3:c7:8d:a5:a9:b5, 2015-01-01 00:03:45.450, 0.029, -0.003, 1.009, 0, 0.061, 0, -0.203, -1.681, -122.355, -8.232, -4.998, -14.798,, 0.48199, -0.01373, -0.00549, -0.87601,
 14:58:55.201,d3:c7:8d:a5:a9:b5, 2015-01-01 00:03:45.450, 0.029, -0.003, 1.009, 0, 0.061, 0, -0.203, -1.681, -122.355, -8.232, -4.998, -14.798,, 0.48199, -0.01373, -0.00549, -0.87601,
 14:58:55.201,d3:c7:8d:a5:a9:b5, 2015-01-01 00:03:45.450, 0.029, -0.004, 1.01, 0, 0, 0, -0.203, -1.681, -122.355, -8.232, -4.998, -14.798,, 0.48199, -0.01373, -0.00549, -0.87601,
 14:58:55.232,d3:c7:8d:a5:a9:b5, 2015-01-01 00:03:45.840, 0.031, -0.004, 1.01, 0, 0, 0, -0.203, -1.681, -122.355, -8.232, -4.998, -14.798,, 0.48199, -0.01373, -0.00549, -0.87601,
 14:58:55.232,d3:c7:8d:a5:a9:b5, 2015-01-01 00:03:45.840, 0.031, -0.005, 1.01, 0, 0, 0, -0.203, -1.681, -122.355, -8.232, -4.998, -14.798,, 0.48199, -0.01373, -0.00549, -0.87601,
 14:58:55.232,d3:c7:8d:a5:a9:b5, 2015-01-01 00:03:45.840, 0.03, -0.005, 1.01, 0, 0, 0, -0.203, -1.681, -122.355, -8.232, -4.998, -14.798,, 0.48199, -0.01373, -0.00549, -0.87601,
 14:58:55.232,d3:c7:8d:a5:a9:b5, 2015-01-01 00:03:45.840, 0.03, -0.003, 1.012, 0, 0, 0, -0.203, -1.681, -122.355, -8.232, -4.998, -14.798,, 0.48199, -0.01373, -0.00549, -0.87601,
 14:58:55.261,d3:c7:8d:a5:a9:b5, 2015-01-01 00:03:45.840, 0.028, -0.003, 1.012, 0, 0, 0, -0.203, -1.681, -122.355, -8.232, -4.998, -14.798,, 0.48199, -0.01373, -0.00549, -0.87601,
 14:58:55.261,d3:c7:8d:a5:a9:b5, 2015-01-01 00:03:45.840, 0.028, -0.003, 1.009, 0, -0.122, 0, -0.203, -1.681, -122.355, -8.232, -4.998, -14.798,, 0.48199, -0.01373, -0.00549, -0.87601,
 14:58:55.261,d3:c7:8d:a5:a9:b5, 2015-01-01 00:03:45.840, 0.028, -0.003, 1.009, 0, -0.122, 0, -0.203, -1.681, -122.355, -8.232, -4.998, -14.798,, 0.48199, -0.01373, -0.00549, -0.87601,
 14:58:55.261,d3:c7:8d:a5:a9:b5, 2015-01-01 00:03:45.840, 0.028, -0.004, 1.008, 0, -0.366, 0, -0.203, -1.686, -122.355, -8.232, -4.998, -14.798,, 0.48199, -0.01373, -0.00549, -0.87601,
 14:58:55.321,d3:c7:8d:a5:a9:b5, 2015-01-01 00:03:45.840, 0.029, -0.004, 1.008, 0, -0.366, 0, -0.203, -1.686, -122.355, -8.232, -4.998, -14.798,, 0.48199, -0.01373, -0.00549, -0.87601,
 14:58:55.321,d3:c7:8d:a5:a9:b5, 2015-01-01 00:03:45.840, 0.029, -0.005, 1.01, 0, -0.183, 0, -0.203, -1.692, -122.355, -8.232, -4.998, -14.798,, 0.48199, -0.01373, -0.00549, -0.87601,
 14:58:55.321,d3:c7:8d:a5:a9:b5, 2015-01-01 00:03:45.840, 0.026, -0.005, 1.01, 0, -0.183, 0, -0.203, -1.692, -122.355, -8.232, -4.998, -14.798,, 0.48199, -0.01373, -0.00549, -0.87601,
 14:58:55.322,d3:c7:8d:a5:a9:b5, 2015-01-01 00:03:45.840, 0.026, -0.003, 1.01, 0, -0.244, 0, -0.203, -1.692, -122.355, -8.232, -4.998, -14.798,, 0.48199, -0.01373, -0.00549, -0.87601,
 14:58:55.351,d3:c7:8d:a5:a9:b5, 2015-01-01 00:03:45.840, 0.029, -0.003, 1.01, 0, -0.244, 0, -0.203, -1.697, -122.355, -8.232, -4.998, -14.798,, 0.48199, -0.01373, -0.00549, -0.87601,
 14:58:55.351,d3:c7:8d:a5:a9:b5, 2015-01-01 00:03:45.840, 0.029, -0.003, 1.008, 0, -0.488, 0, -0.203, -1.697, -122.355, -8.232, -4.998, -14.798,, 0.48199, -0.01373, -0.00549, -0.87601,
 14:58:55.351,d3:c7:8d:a5:a9:b5, 2015-01-01 00:03:45.840, 0.032, -0.003, 1.008, 0, -0.488, 0, -0.203, -1.703, -122.355, -8.232, -4.998, -14.798,, 0.48199, -0.01373, -0.00549, -0.87601,
 14:58:55.351,d3:c7:8d:a5:a9:b5, 2015-01-01 00:03:45.840, 0.032, -0.003, 1.01, -0.061, -0.366, 0, -0.203, -1.708, -122.355, -8.232, -4.998, -14.798,, 0.48199, -0.01373, -0.00549, -0.87601,
 14:58:55.412,d3:c7:8d:a5:a9:b5, 2015-01-01 00:03:45.840, 0.033, -0.003, 1.01, -0.061, -0.366, 0, -0.209, -1.708, -122.355, -8.232, -4.998, -14.798,, 0.48199, -0.01373, -0.00549, -0.87601,
 14:58:55.412,d3:c7:8d:a5:a9:b5, 2015-01-01 00:03:45.840, 0.03, -0.004, 1.012, -0.061, 0, 0, -0.209, -1.708, -122.355, -8.232, -4.998, -14.798,, 0.48199, -0.01373, -0.00549, -0.87601,
 14:58:55.412,d3:c7:8d:a5:a9:b5, 2015-01-01 00:03:45.840, 0.03, -0.005, 1.01, -0.061, 0.122, 0, -0.209, -1.708, -122.355, -8.232, -4.998, -14.798,, 0.48199, -0.01373, -0.00549, -0.87601,
 14:58:55.412,d3:c7:8d:a5:a9:b5, 2015-01-01 00:03:45.840, 0.029, -0.005, 1.01, -0.061, 0.122, 0, -0.209, -1.708, -122.355, -8.232, -4.998, -14.798,, 0.48199, -0.01373, -0.00549, -0.87601,
 14:58:55.441,d3:c7:8d:a5:a9:b5, 2015-01-01 00:03:45.840, 0.029, -0.003, 1.01, 0, -0.061, 0, -0.209, -1.708, -122.355, -8.330, -4.998, -14.798,, 0.48199, -0.01373, -0.00549, -0.87601,
 14:58:55.441,d3:c7:8d:a5:a9:b5, 2015-01-01 00:03:45.840, 0.03, -0.003, 1.01, 0, -0.061, 0, -0.209, -1.708, -122.355, -8.330, -4.998, -14.798,, 0.48199, -0.01373, -0.00549, -0.87601,
 14:58:55.441,d3:c7:8d:a5:a9:b5, 2015-01-01 00:03:45.840, 0.03, -0.003, 1.01, 0, -0.122, 0, -0.209, -1.708, -122.355, -8.330, -4.998, -14.798,, 0.48199, -0.01373, -0.00549, -0.87601,
 14:58:55.441,d3:c7:8d:a5:a9:b5, 2015-01-01 00:03:45.840, 0.029, -0.003, 1.01, 0, -0.122, 0, -0.209, -1.708, -122.355, -8.330, -4.998, -14.798,, 0.48199, -0.01373, -0.00549, -0.87601,
 14:58:55.472,d3:c7:8d:a5:a9:b5, 2015-01-01 00:03:45.840, 0.029, -0.004, 1.009, -0.061, 0.061, 0, -0.209, -1.708, -122.355, -8.330, -4.998, -14.798,, 0.48199, -0.01373, -0.00549, -0.87601,
 14:58:55.472,d3:c7:8d:a5:a9:b5, 2015-01-01 00:03:45.840, 0.028, -0.004, 1.009, -0.061, 0.061, 0, -0.209, -1.708, -122.355, -8.330, -4.998, -14.798,, 0.48199, -0.01373, -0.00549, -0.87601,
 14:58:55.472,d3:c7:8d:a5:a9:b5, 2015-01-01 00:03:45.840, 0.028, -0.005, 1.008, -0.061, 0, 0, -0.209, -1.708, -122.355, -8.330, -4.998, -14.798,, 0.48199, -0.01373, -0.00549, -0.87601,
 14:58:55.474,d3:c7:8d:a5:a9:b5, 2015-01-01 00:03:45.840, 0.028, -0.005, 1.008, -0.061, 0, 0, -0.214, -1.708, -122.355, -8.330, -4.998, -14.798,, 0.48199, -0.01373, -0.00549, -0.87601,
 14:58:55.532,d3:c7:8d:a5:a9:b5, 2015-01-01 00:03:45.840, 0.028, -0.004, 1.011, 0, -0.183, 0, -0.214, -1.708, -122.355, -8.330, -4.998, -14.798,, 0.48196, -0.01398, -0.00555, -0.87601,
 14:58:55.532,d3:c7:8d:a5:a9:b5, 2015-01-01 00:03:45.840, 0.031, -0.004, 1.011, 0, -0.183, 0, -0.214, -1.714, -122.355, -8.330, -4.998, -14.798,, 0.48196, -0.01398, -0.00555, -0.87601,
 14:58:55.532,d3:c7:8d:a5:a9:b5, 2015-01-01 00:03:45.840, 0.031, -0.004, 1.011, -0.122, -0.305, 0, -0.214, -1.714, -122.355, -8.330, -4.998, -14.798,, 0.48196, -0.01398, -0.00555, -0.87601,
 14:58:55.532,d3:c7:8d:a5:a9:b5, 2015-01-01 00:03:45.840, 0.031, -0.004, 1.011, -0.122, -0.305, 0, -0.214, -1.719, -122.355, -8.330, -4.998, -14.798,, 0.48196, -0.01398, -0.00555, -0.87601,
 14:58:55.561,d3:c7:8d:a5:a9:b5, 2015-01-01 00:03:46.165, 0.031, -0.003, 1.01, -0.061, -0.183, 0, -0.214, -1.719, -122.355, -8.330, -4.998, -14.798,, 0.48196, -0.01398, -0.00555, -0.87601,
 14:58:55.561,d3:c7:8d:a5:a9:b5, 2015-01-01 00:03:46.165, 0.033, -0.003, 1.01, -0.061, -0.183, 0, -0.214, -1.719, -122.355, -8.330, -4.998, -14.798,, 0.48196, -0.01398, -0.00555, -0.87601,
 14:58:55.561,d3:c7:8d:a5:a9:b5, 2015-01-01 00:03:46.165, 0.033, -0.005, 1.011, -0.061, 0.122, 0, -0.22, -1.719, -122.355, -8.330, -4.998, -14.798,, 0.48196, -0.01398, -0.00555, -0.87601,
 14:58:55.561,d3:c7:8d:a5:a9:b5, 2015-01-01 00:03:46.165, 0.031, -0.005, 1.011, -0.061, 0.122, 0, -0.22, -1.719, -122.355, -8.330, -4.998, -14.798,, 0.48196, -0.01398, -0.00555, -0.87601,
 14:58:55.591,d3:c7:8d:a5:a9:b5, 2015-01-01 00:03:46.165, 0.031, -0.004, 1.011, 0, 0.366, 0, -0.22, -1.719, -122.355, -8.330, -4.998, -14.798,, 0.48196, -0.01398, -0.00555, -0.87601,
 14:58:55.591,d3:c7:8d:a5:a9:b5, 2015-01-01 00:03:46.165, 0.029, -0.004, 1.011, 0, 0.366, 0, -0.22, -1.714, -122.355, -8.330, -4.998, -14.798,, 0.48196, -0.01398, -0.00555, -0.87601,
 14:58:55.591,d3:c7:8d:a5:a9:b5, 2015-01-01 00:03:46.165, 0.029, -0.004, 1.009, 0, 0.183, 0, -0.22, -1.708, -122.355, -8.330, -4.998, -14.798,, 0.48196, -0.01398, -0.00555, -0.87601,
 14:58:55.591,d3:c7:8d:a5:a9:b5, 2015-01-01 00:03:46.165, 0.029, -0.004, 1.009, 0, 0.183, 0, -0.22, -1.708, -122.355, -8.330, -4.998, -14.798,, 0.48196, -0.01398, -0.00555, -0.87601,
 14:58:55.653,d3:c7:8d:a5:a9:b5, 2015-01-01 00:03:46.165, 0.029, -0.004, 1.009, 0, 0.122, 0, -0.22, -1.708, -122.355, -8.330, -4.998, -14.798,, 0.48196, -0.01398, -0.00555, -0.87601,
 14:58:55.653,d3:c7:8d:a5:a9:b5, 2015-01-01 00:03:46.165, 0.029, -0.004, 1.009, 0, 0.122, 0, -0.22, -1.708, -122.355, -8.330, -4.998, -14.798,, 0.48196, -0.01398, -0.00555, -0.87601,
 14:58:55.653,d3:c7:8d:a5:a9:b5, 2015-01-01 00:03:46.165, 0.029, -0.004, 1.01, 0, 0.183, 0, -0.22, -1.703, -122.355, -8.330, -4.998, -14.798,, 0.48196, -0.01398, -0.00555, -0.87601,
 14:58:55.653,d3:c7:8d:a5:a9:b5, 2015-01-01 00:03:46.165, 0.028, -0.004, 1.01, 0, 0.183, 0, -0.22, -1.703, -122.355, -8.330, -4.998, -14.798,, 0.48196, -0.01398, -0.00555, -0.87601,
 14:58:55.680,d3:c7:8d:a5:a9:b5, 2015-01-01 00:03:46.165, 0.028, -0.003, 1.009, 0, 0.122, 0, -0.22, -1.703, -122.355, -8.330, -4.998, -14.798,, 0.48196, -0.01398, -0.00555, -0.87601,
 14:58:55.680,d3:c7:8d:a5:a9:b5, 2015-01-01 00:03:46.165, 0.029, -0.003, 1.009, 0, 0.122, 0, -0.22, -1.703, -122.355, -8.330, -4.998, -14.798,, 0.48196, -0.01398, -0.00555, -0.87601,
 14:58:55.680,d3:c7:8d:a5:a9:b5, 2015-01-01 00:03:46.165, 0.029, -0.005, 1.01, 0, 0, 0, -0.22, -1.697, -122.355, -8.330, -4.998, -14.798,, 0.48196, -0.01398, -0.00555, -0.87601,
 14:58:55.680,d3:c7:8d:a5:a9:b5, 2015-01-01 00:03:46.165, 0.029, -0.005, 1.01, 0, 0, 0, -0.22, -1.697, -122.355, -8.330, -4.998, -14.798,, 0.48196, -0.01398, -0.00555, -0.87601,
 14:58:55.711,d3:c7:8d:a5:a9:b5, 2015-01-01 00:03:46.165, 0.029, -0.005, 1.01, 0, 0.061, 0, -0.22, -1.697, -122.355, -8.330, -4.998, -14.798,, 0.48196, -0.01398, -0.00555, -0.87601,
 14:58:55.711,d3:c7:8d:a5:a9:b5, 2015-01-01 00:03:46.165, 0.028, -0.005, 1.01, 0, 0.061, 0, -0.22, -1.697, -122.355, -8.330, -4.998, -14.798,, 0.48196, -0.01398, -0.00555, -0.87601,
 14:58:55.711,d3:c7:8d:a5:a9:b5, 2015-01-01 00:03:46.165, 0.028, -0.005, 1.009, 0, -0.122, 0, -0.22, -1.697, -122.355, -8.330, -4.998, -14.798,, 0.48196, -0.01398, -0.00555, -0.87601,
 14:58:55.711,d3:c7:8d:a5:a9:b5, 2015-01-01 00:03:46.165, 0.03, -0.005, 1.009, 0, -0.122, 0, -0.22, -1.697, -122.355, -8.330, -4.998, -14.798,, 0.48196, -0.01398, -0.00555, -0.87601,
 14:58:55.771,d3:c7:8d:a5:a9:b5, 2015-01-01 00:03:46.165, 0.03, -0.004, 1.01, 0, -0.305, 0, -0.22, -1.703, -122.355, -8.330, -4.998, -14.798,, 0.48196, -0.01398, -0.00555, -0.87601,
 14:58:55.771,d3:c7:8d:a5:a9:b5, 2015-01-01 00:03:46.165, 0.031, -0.004, 1.01, 0, -0.305, 0, -0.22, -1.703, -122.355, -8.330, -4.998, -14.798,, 0.48196, -0.01398, -0.00555, -0.87601,
 14:58:55.771,d3:c7:8d:a5:a9:b5, 2015-01-01 00:03:46.165, 0.031, -0.004, 1.01, 0, -0.122, 0, -0.22, -1.708, -122.355, -8.330, -4.998, -14.798,, 0.48196, -0.01398, -0.00555, -0.87601,
 14:58:55.771,d3:c7:8d:a5:a9:b5, 2015-01-01 00:03:46.165, 0.029, -0.004, 1.01, 0, -0.122, 0, -0.22, -1.708, -122.355, -8.330, -4.998, -14.798,, 0.48196, -0.01398, -0.00555, -0.87601,
 14:58:55.802,d3:c7:8d:a5:a9:b5, 2015-01-01 00:03:46.165, 0.029, -0.004, 1.011, 0, -0.061, 0, -0.22, -1.708, -122.355, -8.428, -4.900, -14.798,, 0.48196, -0.01398, -0.00555, -0.87601,
 14:58:55.802,d3:c7:8d:a5:a9:b5, 2015-01-01 00:03:46.165, 0.03, -0.004, 1.011, 0, -0.061, 0, -0.225, -1.708, -122.355, -8.428, -4.900, -14.798,, 0.48196, -0.01398, -0.00555, -0.87601,
 14:58:55.802,d3:c7:8d:a5:a9:b5, 2015-01-01 00:03:46.165, 0.03, -0.005, 1.01, 0, -0.122, 0, -0.225, -1.708, -122.355, -8.428, -4.900, -14.798,, 0.48196, -0.01398, -0.00555, -0.87601,
 14:58:55.802,d3:c7:8d:a5:a9:b5, 2015-01-01 00:03:46.165, 0.029, -0.005, 1.01, 0, -0.122, 0, -0.225, -1.708, -122.355, -8.428, -4.900, -14.798,, 0.48196, -0.01398, -0.00555, -0.87601,
 14:58:55.833,d3:c7:8d:a5:a9:b5, 2015-01-01 00:03:46.165, 0.029, -0.004, 1.011, 0, -0.183, 0, -0.225, -1.714, -122.355, -8.428, -4.900, -14.798,, 0.48196, -0.01398, -0.00555, -0.87601,
 14:58:55.833,d3:c7:8d:a5:a9:b5, 2015-01-01 00:03:46.165, 0.031, -0.004, 1.011, 0, -0.183, 0, -0.225, -1.714, -122.355, -8.428, -4.900, -14.798,, 0.48196, -0.01398, -0.00555, -0.87601,
 14:58:55.833,d3:c7:8d:a5:a9:b5, 2015-01-01 00:03:46.165, 0.031, -0.003, 1.01, 0, -0.122, 0, -0.225, -1.714, -122.355, -8.428, -4.900, -14.798,, 0.48196, -0.01398, -0.00555, -0.87601,
 14:58:55.833,d3:c7:8d:a5:a9:b5, 2015-01-01 00:03:46.165, 0.031, -0.003, 1.01, 0, -0.122, 0, -0.225, -1.714, -122.355, -8.428, -4.900, -14.798,, 0.48196, -0.01398, -0.00555, -0.87601,
 14:58:55.892,d3:c7:8d:a5:a9:b5, 2015-01-01 00:03:46.165, 0.031, -0.004, 1.01, 0, 0.122, 0, -0.225, -1.714, -122.355, -8.428, -4.900, -14.798,, 0.48196, -0.01407, -0.00546, -0.87601,
 14:58:55.892,d3:c7:8d:a5:a9:b5, 2015-01-01 00:03:46.165, 0.027, -0.004, 1.01, 0, 0.122, 0, -0.225, -1.714, -122.355, -8.428, -4.900, -14.798,, 0.48196, -0.01407, -0.00546, -0.87601,
 14:58:55.892,d3:c7:8d:a5:a9:b5, 2015-01-01 00:03:46.165, 0.027, -0.004, 1.01, -0.061, 0, 0, -0.225, -1.714, -122.355, -8.428, -4.900, -14.798,, 0.48196, -0.01407, -0.00546, -0.87601,
 14:58:55.892,d3:c7:8d:a5:a9:b5, 2015-01-01 00:03:46.165, 0.029, -0.004, 1.01, -0.061, 0, 0, -0.225, -1.714, -122.355, -8.428, -4.900, -14.798,, 0.48196, -0.01407, -0.00546, -0.87601,
 14:58:55.921,d3:c7:8d:a5:a9:b5, 2015-01-01 00:03:46.525, 0.029, -0.004, 1.01, 0, -0.366, 0, -0.225, -1.714, -122.355, -8.428, -4.900, -14.798,, 0.48196, -0.01407, -0.00546, -0.87601,
 14:58:55.921,d3:c7:8d:a5:a9:b5, 2015-01-01 00:03:46.525, 0.032, -0.004, 1.01, 0, -0.366, 0, -0.225, -1.719, -122.355, -8.428, -4.900, -14.798,, 0.48196, -0.01407, -0.00546, -0.87601,
 14:58:55.921,d3:c7:8d:a5:a9:b5, 2015-01-01 00:03:46.525, 0.032, -0.005, 1.01, 0, -0.366, 0, -0.225, -1.725, -122.355, -8.428, -4.900, -14.798,, 0.48196, -0.01407, -0.00546, -0.87601,
 14:58:55.921,d3:c7:8d:a5:a9:b5, 2015-01-01 00:03:46.525, 0.032, -0.005, 1.01, 0, -0.366, 0, -0.225, -1.725, -122.355, -8.428, -4.900, -14.798,, 0.48196, -0.01407, -0.00546, -0.87601,
 14:58:55.952,d3:c7:8d:a5:a9:b5, 2015-01-01 00:03:46.525, 0.032, -0.004, 1.011, 0, -0.122, 0, -0.225, -1.725, -122.355, -8.428, -4.900, -14.798,, 0.48196, -0.01407, -0.00546, -0.87601,
 14:58:55.952,d3:c7:8d:a5:a9:b5, 2015-01-01 00:03:46.525, 0.031, -0.004, 1.011, 0, -0.122, 0, -0.225, -1.73, -122.355, -8.428, -4.900, -14.798,, 0.48196, -0.01407, -0.00546, -0.87601,
 14:58:55.952,d3:c7:8d:a5:a9:b5, 2015-01-01 00:03:46.525, 0.031, -0.004, 1.01, 0, 0, 0, -0.225, -1.73, -122.355, -8.428, -4.900, -14.798,, 0.48196, -0.01407, -0.00546, -0.87601,
 14:58:55.952,d3:c7:8d:a5:a9:b5, 2015-01-01 00:03:46.525, 0.03, -0.004, 1.01, 0, 0, 0, -0.225, -1.73, -122.355, -8.428, -4.900, -14.798,, 0.48196, -0.01407, -0.00546, -0.87601,
 14:58:56.011,d3:c7:8d:a5:a9:b5, 2015-01-01 00:03:46.525, 0.03, -0.005, 1.01, 0, 0, 0, -0.225, -1.73, -122.36, -8.428, -4.900, -14.798,, 0.48196, -0.01407, -0.00546, -0.87601,
 14:58:56.011,d3:c7:8d:a5:a9:b5, 2015-01-01 00:03:46.525, 0.03, -0.005, 1.01, 0, 0, 0, -0.225, -1.73, -122.36, -8.428, -4.900, -14.798,, 0.48196, -0.01407, -0.00546, -0.87601,
 14:58:56.011,d3:c7:8d:a5:a9:b5, 2015-01-01 00:03:46.525, 0.03, -0.004, 1.01, 0, 0, 0, -0.225, -1.725, -122.36, -8.428, -4.900, -14.798,, 0.48196, -0.01407, -0.00546, -0.87601,
 14:58:56.011,d3:c7:8d:a5:a9:b5, 2015-01-01 00:03:46.525, 0.03, -0.004, 1.01, 0, 0, 0, -0.225, -1.725, -122.36, -8.428, -4.900, -14.798,, 0.48196, -0.01407, -0.00546, -0.87601,
 14:58:56.041,d3:c7:8d:a5:a9:b5, 2015-01-01 00:03:46.525, 0.03, -0.004, 1.011, 0, 0.061, 0, -0.225, -1.725, -122.36, -8.428, -4.900, -14.798,, 0.48196, -0.01407, -0.00546, -0.87601,
 14:58:56.041,d3:c7:8d:a5:a9:b5, 2015-01-01 00:03:46.525, 0.029, -0.004, 1.011, 0, 0.061, 0, -0.231, -1.725, -122.36, -8.428, -4.900, -14.798,, 0.48196, -0.01407, -0.00546, -0.87601,
 14:58:56.041,d3:c7:8d:a5:a9:b5, 2015-01-01 00:03:46.525, 0.029, -0.004, 1.009, 0, 0, 0, -0.231, -1.725, -122.36, -8.428, -4.900, -14.798,, 0.48196, -0.01407, -0.00546, -0.87601,
 14:58:56.041,d3:c7:8d:a5:a9:b5, 2015-01-01 00:03:46.525, 0.031, -0.004, 1.009, 0, 0, 0, -0.231, -1.725, -122.36, -8.428, -4.900, -14.798,, 0.48196, -0.01407, -0.00546, -0.87601,
 14:58:56.072,d3:c7:8d:a5:a9:b5, 2015-01-01 00:03:46.525, 0.031, -0.004, 1.01, 0, 0, 0, -0.231, -1.725, -122.36, -8.428, -4.900, -14.798,, 0.48196, -0.01407, -0.00546, -0.87601,
 14:58:56.072,d3:c7:8d:a5:a9:b5, 2015-01-01 00:03:46.525, 0.032, -0.004, 1.01, 0, 0, 0, -0.231, -1.725, -122.36, -8.428, -4.900, -14.798,, 0.48196, -0.01407, -0.00546, -0.87601,
 14:58:56.072,d3:c7:8d:a5:a9:b5, 2015-01-01 00:03:46.525, 0.032, -0.004, 1.01, 0, 0.244, 0, -0.231, -1.725, -122.36, -8.428, -4.900, -14.798,, 0.48196, -0.01407, -0.00546, -0.87601,
 14:58:56.072,d3:c7:8d:a5:a9:b5, 2015-01-01 00:03:46.525, 0.03, -0.004, 1.01, 0, 0.244, 0, -0.231, -1.719, -122.36, -8.428, -4.900, -14.798,, 0.48196, -0.01407, -0.00546, -0.87601,
 14:58:56.131,d3:c7:8d:a5:a9:b5, 2015-01-01 00:03:46.525, 0.03, -0.005, 1.011, 0, 0.183, 0, -0.231, -1.719, -122.36, -8.428, -4.900, -14.798,, 0.48196, -0.01407, -0.00546, -0.87601,
 14:58:56.131,d3:c7:8d:a5:a9:b5, 2015-01-01 00:03:46.525, 0.029, -0.005, 1.011, 0, 0.183, 0, -0.231, -1.719, -122.36, -8.428, -4.900, -14.798,, 0.48196, -0.01407, -0.00546, -0.87601,
 14:58:56.131,d3:c7:8d:a5:a9:b5, 2015-01-01 00:03:46.525, 0.029, -0.004, 1.01, 0, 0, 0, -0.231, -1.719, -122.36, -8.428, -4.900, -14.798,, 0.48196, -0.01407, -0.00546, -0.87601,
 14:58:56.131,d3:c7:8d:a5:a9:b5, 2015-01-01 00:03:46.525, 0.029, -0.004, 1.01, 0, 0, 0, -0.231, -1.719, -122.36, -8.428, -4.900, -14.798,, 0.48196, -0.01407, -0.00546, -0.87601,
 14:58:56.162,d3:c7:8d:a5:a9:b5, 2015-01-01 00:03:46.525, 0.029, -0.004, 1.01, 0, -0.061, 0, -0.231, -1.719, -122.36, -8.330, -4.998, -14.798,, 0.48196, -0.01407, -0.00546, -0.87601,
 14:58:56.162,d3:c7:8d:a5:a9:b5, 2015-01-01 00:03:46.525, 0.029, -0.004, 1.01, 0, -0.061, 0, -0.231, -1.719, -122.36, -8.330, -4.998, -14.798,, 0.48196, -0.01407, -0.00546, -0.87601,
 14:58:56.162,d3:c7:8d:a5:a9:b5, 2015-01-01 00:03:46.525, 0.029, -0.003, 1.009, -0.061, -0.061, 0, -0.231, -1.719, -122.36, -8.330, -4.998, -14.798,, 0.48196, -0.01407, -0.00546, -0.87601,
 14:58:56.162,d3:c7:8d:a5:a9:b5, 2015-01-01 00:03:46.525, 0.029, -0.003, 1.009, -0.061, -0.061, 0, -0.231, -1.719, -122.36, -8.330, -4.998, -14.798,, 0.48196, -0.01407, -0.00546, -0.87601,
 14:58:56.191,d3:c7:8d:a5:a9:b5, 2015-01-01 00:03:46.525, 0.029, -0.004, 1.01, 0, -0.122, 0, -0.231, -1.719, -122.36, -8.330, -4.998, -14.798,, 0.48196, -0.01407, -0.00546, -0.87601,
 14:58:56.191,d3:c7:8d:a5:a9:b5, 2015-01-01 00:03:46.525, 0.029, -0.004, 1.01, 0, -0.122, 0, -0.231, -1.719, -122.36, -8.330, -4.998, -14.798,, 0.48196, -0.01407, -0.00546, -0.87601,
 14:58:56.191,d3:c7:8d:a5:a9:b5, 2015-01-01 00:03:46.525, 0.029, -0.004, 1.011, -0.122, -0.122, 0, -0.231, -1.725, -122.36, -8.330, -4.998, -14.798,, 0.48196, -0.01407, -0.00546, -0.87601,
 14:58:56.191,d3:c7:8d:a5:a9:b5, 2015-01-01 00:03:46.525, 0.03, -0.004, 1.011, -0.122, -0.122, 0, -0.236, -1.725, -122.36, -8.330, -4.998, -14.798,, 0.48196, -0.01407, -0.00546, -0.87601,
 14:58:56.252,d3:c7:8d:a5:a9:b5, 2015-01-01 00:03:46.525, 0.03, -0.004, 1.01, -0.061, -0.244, 0, -0.236, -1.725, -122.36, -8.330, -4.998, -14.798,, 0.48193, -0.01416, -0.00543, -0.87601,
 14:58:56.252,d3:c7:8d:a5:a9:b5, 2015-01-01 00:03:46.525, 0.031, -0.004, 1.01, -0.061, -0.244, 0, -0.236, -1.725, -122.36, -8.330, -4.998, -14.798,, 0.48193, -0.01416, -0.00543, -0.87601,
 14:58:56.252,d3:c7:8d:a5:a9:b5, 2015-01-01 00:03:46.525, 0.031, -0.004, 1.012, 0, -0.244, 0, -0.236, -1.73, -122.36, -8.330, -4.998, -14.798,, 0.48193, -0.01416, -0.00543, -0.87601,
 14:58:56.252,d3:c7:8d:a5:a9:b5, 2015-01-01 00:03:46.525, 0.031, -0.004, 1.012, 0, -0.244, 0, -0.236, -1.73, -122.36, -8.330, -4.998, -14.798,, 0.48193, -0.01416, -0.00543, -0.87601,
 14:58:56.281,d3:c7:8d:a5:a9:b5, 2015-01-01 00:03:46.880, 0.031, -0.005, 1.01, 0, -0.122, 0, -0.236, -1.73, -122.36, -8.330, -4.998, -14.798,, 0.48193, -0.01416, -0.00543, -0.87601,
 14:58:56.281,d3:c7:8d:a5:a9:b5, 2015-01-01 00:03:46.880, 0.03, -0.005, 1.01, 0, -0.122, 0, -0.236, -1.736, -122.36, -8.330, -4.998, -14.798,, 0.48193, -0.01416, -0.00543, -0.87601,
 14:58:56.281,d3:c7:8d:a5:a9:b5, 2015-01-01 00:03:46.880, 0.03, -0.003, 1.009, 0, -0.183, 0, -0.236, -1.736, -122.36, -8.330, -4.998, -14.798,, 0.48193, -0.01416, -0.00543, -0.87601,
 14:58:56.281,d3:c7:8d:a5:a9:b5, 2015-01-01 00:03:46.880, 0.03, -0.005, 1.011, 0, -0.305, 0, -0.236, -1.736, -122.36, -8.330, -4.998, -14.798,, 0.48193, -0.01416, -0.00543, -0.87601,
 14:58:56.310,d3:c7:8d:a5:a9:b5, 2015-01-01 00:03:46.880, 0.031, -0.005, 1.011, 0, -0.305, 0, -0.236, -1.741, -122.36, -8.330, -4.998, -14.798,, 0.48193, -0.01416, -0.00543, -0.87601,
 14:58:56.310,d3:c7:8d:a5:a9:b5, 2015-01-01 00:03:46.880, 0.031, -0.005, 1.01, 0, -0.244, 0, -0.236, -1.741, -122.36, -8.330, -4.998, -14.798,, 0.48193, -0.01416, -0.00543, -0.87601,
 14:58:56.310,d3:c7:8d:a5:a9:b5, 2015-01-01 00:03:46.880, 0.03, -0.005, 1.01, 0, -0.244, 0, -0.236, -1.747, -122.36, -8.330, -4.998, -14.798,, 0.48193, -0.01416, -0.00543, -0.87601,
 14:58:56.310,d3:c7:8d:a5:a9:b5, 2015-01-01 00:03:46.880, 0.03, -0.005, 1.01, 0.061, -0.122, 0, -0.236, -1.747, -122.36, -8.330, -4.998, -14.798,, 0.48193, -0.01416, -0.00543, -0.87601,
 14:58:56.371,d3:c7:8d:a5:a9:b5, 2015-01-01 00:03:46.880, 0.031, -0.005, 1.01, 0.061, -0.122, 0, -0.236, -1.747, -122.36, -8.330, -4.998, -14.798,, 0.48193, -0.01416, -0.00543, -0.87601,
 14:58:56.371,d3:c7:8d:a5:a9:b5, 2015-01-01 00:03:46.880, 0.031, -0.004, 1.01, 0, 0, 0, -0.236, -1.747, -122.36, -8.330, -4.998, -14.798,, 0.48193, -0.01416, -0.00543, -0.87601,
 14:58:56.371,d3:c7:8d:a5:a9:b5, 2015-01-01 00:03:46.880, 0.032, -0.004, 1.01, 0, 0, 0, -0.236, -1.747, -122.36, -8.330, -4.998, -14.798,, 0.48193, -0.01416, -0.00543, -0.87601,
 14:58:56.371,d3:c7:8d:a5:a9:b5, 2015-01-01 00:03:46.880, 0.032, -0.005, 1.011, 0, 0, 0, -0.236, -1.747, -122.36, -8.330, -4.998, -14.798,, 0.48193, -0.01416, -0.00543, -0.87601,
 14:58:56.401,d3:c7:8d:a5:a9:b5, 2015-01-01 00:03:46.880, 0.03, -0.005, 1.011, 0, 0, 0, -0.236, -1.747, -122.36, -8.330, -4.998, -14.798,, 0.48193, -0.01416, -0.00543, -0.87601,
 14:58:56.401,d3:c7:8d:a5:a9:b5, 2015-01-01 00:03:46.880, 0.03, -0.004, 1.01, 0, 0, 0, -0.236, -1.747, -122.36, -8.330, -4.998, -14.798,, 0.48193, -0.01416, -0.00543, -0.87601,
 14:58:56.401,d3:c7:8d:a5:a9:b5, 2015-01-01 00:03:46.880, 0.032, -0.004, 1.01, 0, 0, 0, -0.236, -1.747, -122.36, -8.330, -4.998, -14.798,, 0.48193, -0.01416, -0.00543, -0.87601,
 14:58:56.401,d3:c7:8d:a5:a9:b5, 2015-01-01 00:03:46.880, 0.032, -0.005, 1.011, 0, -0.122, 0, -0.236, -1.747, -122.36, -8.330, -4.998, -14.798,, 0.48193, -0.01416, -0.00543, -0.87601,
 14:58:56.440,d3:c7:8d:a5:a9:b5, 2015-01-01 00:03:46.880, 0.031, -0.005, 1.011, 0, -0.122, 0, -0.236, -1.752, -122.36, -8.330, -4.998, -14.798,, 0.48193, -0.01416, -0.00543, -0.87601,
 14:58:56.440,d3:c7:8d:a5:a9:b5, 2015-01-01 00:03:46.880, 0.031, -0.004, 1.011, 0, 0.061, 0, -0.236, -1.752, -122.36, -8.330, -4.998, -14.798,, 0.48193, -0.01416, -0.00543, -0.87601,
 14:58:56.440,d3:c7:8d:a5:a9:b5, 2015-01-01 00:03:46.880, 0.03, -0.004, 1.011, 0, 0.061, 0, -0.236, -1.752, -122.36, -8.330, -4.998, -14.798,, 0.48193, -0.01416, -0.00543, -0.87601,
 14:58:56.440,d3:c7:8d:a5:a9:b5, 2015-01-01 00:03:46.880, 0.03, -0.004, 1.01, 0, 0.061, 0, -0.236, -1.747, -122.36, -8.330, -4.998, -14.798,, 0.48193, -0.01416, -0.00543, -0.87601,
 14:58:56.494,d3:c7:8d:a5:a9:b5, 2015-01-01 00:03:46.880, 0.031, -0.004, 1.01, 0, 0.061, 0, -0.236, -1.747, -122.36, -8.330, -4.998, -14.798,, 0.48193, -0.01416, -0.00543, -0.87601,
 14:58:56.494,d3:c7:8d:a5:a9:b5, 2015-01-01 00:03:46.880, 0.031, -0.004, 1.01, 0, 0.061, 0, -0.236, -1.747, -122.36, -8.330, -4.998, -14.798,, 0.48193, -0.01416, -0.00543, -0.87601,
 14:58:56.494,d3:c7:8d:a5:a9:b5, 2015-01-01 00:03:46.880, 0.03, -0.004, 1.01, 0, 0.061, 0, -0.236, -1.747, -122.36, -8.330, -4.998, -14.798,, 0.48193, -0.01416, -0.00543, -0.87601,
 14:58:56.494,d3:c7:8d:a5:a9:b5, 2015-01-01 00:03:46.880, 0.03, -0.004, 1.011, 0, 0.183, 0, -0.236, -1.747, -122.36, -8.330, -4.998, -14.798,, 0.48193, -0.01416, -0.00543, -0.87601,
 14:58:56.521,d3:c7:8d:a5:a9:b5, 2015-01-01 00:03:46.880, 0.028, -0.004, 1.011, 0, 0.183, 0, -0.236, -1.747, -122.36, -8.428, -4.900, -14.798,, 0.48193, -0.01416, -0.00543, -0.87601,
 14:58:56.521,d3:c7:8d:a5:a9:b5, 2015-01-01 00:03:46.880, 0.028, -0.005, 1.009, 0, 0, 0, -0.236, -1.741, -122.36, -8.428, -4.900, -14.798,, 0.48193, -0.01416, -0.00543, -0.87601,
 14:58:56.521,d3:c7:8d:a5:a9:b5, 2015-01-01 00:03:46.880, 0.032, -0.005, 1.009, 0, 0, 0, -0.236, -1.741, -122.36, -8.428, -4.900, -14.798,, 0.48193, -0.01416, -0.00543, -0.87601,
 14:58:56.521,d3:c7:8d:a5:a9:b5, 2015-01-01 00:03:46.880, 0.032, -0.005, 1.011, 0, -0.305, 0, -0.242, -1.747, -122.36, -8.428, -4.900, -14.798,, 0.48193, -0.01416, -0.00543, -0.87601,
 14:58:56.552,d3:c7:8d:a5:a9:b5, 2015-01-01 00:03:46.880, 0.031, -0.005, 1.011, 0, -0.305, 0, -0.242, -1.747, -122.36, -8.428, -4.900, -14.798,, 0.48193, -0.01416, -0.00543, -0.87601,
 14:58:56.552,d3:c7:8d:a5:a9:b5, 2015-01-01 00:03:46.880, 0.031, -0.003, 1.01, 0, -0.122, 0, -0.242, -1.747, -122.36, -8.428, -4.900, -14.798,, 0.48193, -0.01416, -0.00543, -0.87601,
 14:58:56.552,d3:c7:8d:a5:a9:b5, 2015-01-01 00:03:46.880, 0.032, -0.003, 1.01, 0, -0.122, 0, -0.242, -1.752, -122.36, -8.428, -4.900, -14.798,, 0.48193, -0.01416, -0.00543, -0.87601,
 14:58:56.552,d3:c7:8d:a5:a9:b5, 2015-01-01 00:03:46.880, 0.032, -0.004, 1.011, 0, -0.122, 0, -0.242, -1.752, -122.36, -8.428, -4.900, -14.798,, 0.48193, -0.01416, -0.00543, -0.87601,
 14:58:56.616,d3:c7:8d:a5:a9:b5, 2015-01-01 00:03:46.880, 0.033, -0.004, 1.011, 0, -0.122, 0, -0.242, -1.752, -122.36, -8.428, -4.900, -14.798,, 0.48193, -0.0144, -0.00549, -0.87601,
 14:58:56.616,d3:c7:8d:a5:a9:b5, 2015-01-01 00:03:46.880, 0.033, -0.004, 1.011, 0, 0.305, 0, -0.242, -1.752, -122.36, -8.428, -4.900, -14.798,, 0.48193, -0.0144, -0.00549, -0.87601,
 14:58:56.616,d3:c7:8d:a5:a9:b5, 2015-01-01 00:03:46.880, 0.032, -0.004, 1.011, 0, 0.305, 0, -0.242, -1.747, -122.36, -8.428, -4.900, -14.798,, 0.48193, -0.0144, -0.00549, -0.87601,
 14:58:56.616,d3:c7:8d:a5:a9:b5, 2015-01-01 00:03:46.880, 0.032, -0.003, 1.011, 0, 0.427, 0, -0.242, -1.747, -122.36, -8.428, -4.900, -14.798,, 0.48193, -0.0144, -0.00549, -0.87601,
 14:58:56.641,d3:c7:8d:a5:a9:b5, 2015-01-01 00:03:47.240, 0.027, -0.003, 1.011, 0, 0.427, 0, -0.242, -1.741, -122.36, -8.428, -4.900, -14.798,, 0.48193, -0.0144, -0.00549, -0.87601,
 14:58:56.641,d3:c7:8d:a5:a9:b5, 2015-01-01 00:03:47.240, 0.027, -0.003, 1.009, 0, 0.366, 0, -0.242, -1.736, -122.36, -8.428, -4.900, -14.798,, 0.48193, -0.0144, -0.00549, -0.87601,
 14:58:56.641,d3:c7:8d:a5:a9:b5, 2015-01-01 00:03:47.240, 0.027, -0.003, 1.009, 0, 0.366, 0, -0.242, -1.736, -122.36, -8.428, -4.900, -14.798,, 0.48193, -0.0144, -0.00549, -0.87601,
 14:58:56.641,d3:c7:8d:a5:a9:b5, 2015-01-01 00:03:47.240, 0.027, -0.005, 1.009, -0.122, -0.122, 0, -0.242, -1.73, -122.36, -8.428, -4.900, -14.798,, 0.48193, -0.0144, -0.00549, -0.87601,
 14:58:56.674,d3:c7:8d:a5:a9:b5, 2015-01-01 00:03:47.240, 0.031, -0.005, 1.009, -0.122, -0.122, 0, -0.242, -1.736, -122.36, -8.428, -4.900, -14.798,, 0.48193, -0.0144, -0.00549, -0.87601,
 14:58:56.674,d3:c7:8d:a5:a9:b5, 2015-01-01 00:03:47.240, 0.031, -0.005, 1.011, 0, -0.183, 0, -0.242, -1.736, -122.36, -8.428, -4.900, -14.798,, 0.48193, -0.0144, -0.00549, -0.87601,
 14:58:56.674,d3:c7:8d:a5:a9:b5, 2015-01-01 00:03:47.240, 0.03, -0.005, 1.011, 0, -0.183, 0, -0.242, -1.736, -122.36, -8.428, -4.900, -14.798,, 0.48193, -0.0144, -0.00549, -0.87601,
 14:58:56.674,d3:c7:8d:a5:a9:b5, 2015-01-01 00:03:47.240, 0.03, -0.004, 1.011, 0, -0.122, 0, -0.242, -1.736, -122.36, -8.428, -4.900, -14.798,, 0.48193, -0.0144, -0.00549, -0.87601,
 14:58:56.730,d3:c7:8d:a5:a9:b5, 2015-01-01 00:03:47.240, 0.031, -0.004, 1.011, 0, -0.122, 0, -0.242, -1.741, -122.36, -8.428, -4.900, -14.798,, 0.48193, -0.0144, -0.00549, -0.87601,
 14:58:56.730,d3:c7:8d:a5:a9:b5, 2015-01-01 00:03:47.240, 0.031, -0.004, 1.009, -0.061, -0.183, 0, -0.242, -1.741, -122.36, -8.428, -4.900, -14.798,, 0.48193, -0.0144, -0.00549, -0.87601,
 14:58:56.730,d3:c7:8d:a5:a9:b5, 2015-01-01 00:03:47.240, 0.031, -0.004, 1.009, -0.061, -0.183, 0, -0.242, -1.741, -122.36, -8.428, -4.900, -14.798,, 0.48193, -0.0144, -0.00549, -0.87601,
 14:58:56.730,d3:c7:8d:a5:a9:b5, 2015-01-01 00:03:47.240, 0.031, -0.004, 1.01, 0, -0.122, 0, -0.247, -1.741, -122.36, -8.428, -4.900, -14.798,, 0.48193, -0.0144, -0.00549, -0.87601,
 14:58:56.762,d3:c7:8d:a5:a9:b5, 2015-01-01 00:03:47.240, 0.029, -0.004, 1.01, 0, -0.122, 0, -0.247, -1.747, -122.36, -8.428, -4.900, -14.798,, 0.48193, -0.0144, -0.00549, -0.87601,
 14:58:56.762,d3:c7:8d:a5:a9:b5, 2015-01-01 00:03:47.240, 0.029, -0.005, 1.01, 0, -0.366, 0, -0.247, -1.747, -122.36, -8.428, -4.900, -14.798,, 0.48193, -0.0144, -0.00549, -0.87601,
 14:58:56.762,d3:c7:8d:a5:a9:b5, 2015-01-01 00:03:47.240, 0.031, -0.005, 1.01, 0, -0.366, 0, -0.247, -1.752, -122.36, -8.428, -4.900, -14.798,, 0.48193, -0.0144, -0.00549, -0.87601,
 14:58:56.762,d3:c7:8d:a5:a9:b5, 2015-01-01 00:03:47.240, 0.031, -0.005, 1.011, 0, -0.488, 0, -0.247, -1.758, -122.36, -8.428, -4.900, -14.798,, 0.48193, -0.0144, -0.00549, -0.87601,
 14:58:56.822,d3:c7:8d:a5:a9:b5, 2015-01-01 00:03:47.240, 0.033, -0.005, 1.011, 0, -0.488, 0, -0.247, -1.763, -122.36, -8.428, -4.900, -14.798,, 0.48193, -0.0144, -0.00549, -0.87601,
 14:58:56.822,d3:c7:8d:a5:a9:b5, 2015-01-01 00:03:47.240, 0.033, -0.004, 1.01, 0, -0.366, 0, -0.247, -1.763, -122.36, -8.428, -4.900, -14.798,, 0.48193, -0.0144, -0.00549, -0.87601,
 14:58:56.822,d3:c7:8d:a5:a9:b5, 2015-01-01 00:03:47.240, 0.032, -0.004, 1.01, 0, -0.366, 0, -0.247, -1.769, -122.36, -8.428, -4.900, -14.798,, 0.48193, -0.0144, -0.00549, -0.87601,
 14:58:56.822,d3:c7:8d:a5:a9:b5, 2015-01-01 00:03:47.240, 0.032, -0.004, 1.01, 0, -0.122, 0, -0.247, -1.769, -122.36, -8.428, -4.900, -14.798,, 0.48193, -0.0144, -0.00549, -0.87601,
 14:58:56.853,d3:c7:8d:a5:a9:b5, 2015-01-01 00:03:47.240, 0.03, -0.004, 1.01, 0, -0.122, 0, -0.247, -1.769, -122.36, -8.232, -4.900, -14.896,, 0.48193, -0.0144, -0.00549, -0.87601,
 14:58:56.853,d3:c7:8d:a5:a9:b5, 2015-01-01 00:03:47.240, 0.03, -0.004, 1.012, -0.061, -0.061, 0, -0.247, -1.769, -122.36, -8.232, -4.900, -14.896,, 0.48193, -0.0144, -0.00549, -0.87601,
 14:58:56.853,d3:c7:8d:a5:a9:b5, 2015-01-01 00:03:47.240, 0.031, -0.004, 1.012, -0.061, -0.061, 0, -0.247, -1.774, -122.36, -8.232, -4.900, -14.896,, 0.48193, -0.0144, -0.00549, -0.87601,
 14:58:56.853,d3:c7:8d:a5:a9:b5, 2015-01-01 00:03:47.240, 0.031, -0.006, 1.009, -0.061, -0.061, 0, -0.247, -1.774, -122.36, -8.232, -4.900, -14.896,, 0.48193, -0.0144, -0.00549, -0.87601,
 14:58:56.884,d3:c7:8d:a5:a9:b5, 2015-01-01 00:03:47.240, 0.032, -0.006, 1.009, -0.061, -0.061, 0, -0.247, -1.774, -122.36, -8.232, -4.900, -14.896,, 0.48193, -0.0144, -0.00549, -0.87601,
 14:58:56.884,d3:c7:8d:a5:a9:b5, 2015-01-01 00:03:47.240, 0.032, -0.004, 1.011, 0, -0.061, 0, -0.247, -1.774, -122.36, -8.232, -4.900, -14.896,, 0.48193, -0.0144, -0.00549, -0.87601,
 14:58:56.884,d3:c7:8d:a5:a9:b5, 2015-01-01 00:03:47.240, 0.033, -0.004, 1.011, 0, -0.061, 0, -0.247, -1.774, -122.36, -8.232, -4.900, -14.896,, 0.48193, -0.0144, -0.00549, -0.87601,
 14:58:56.884,d3:c7:8d:a5:a9:b5, 2015-01-01 00:03:47.240, 0.033, -0.005, 1.011, 0, 0.122, 0, -0.247, -1.774, -122.36, -8.232, -4.900, -14.896,, 0.48193, -0.0144, -0.00549, -0.87601,
 14:58:56.943,d3:c7:8d:a5:a9:b5, 2015-01-01 00:03:47.240, 0.03, -0.005, 1.011, 0, 0.122, 0, -0.247, -1.774, -122.36, -8.232, -4.900, -14.896,, 0.4819, -0.01462, -0.00552, -0.87601,
 14:58:56.943,d3:c7:8d:a5:a9:b5, 2015-01-01 00:03:47.240, 0.03, -0.004, 1.011, 0, 0.122, 0, -0.247, -1.769, -122.36, -8.232, -4.900, -14.896,, 0.4819, -0.01462, -0.00552, -0.87601,
 14:58:56.943,d3:c7:8d:a5:a9:b5, 2015-01-01 00:03:47.240, 0.03, -0.004, 1.011, 0, 0.122, 0, -0.247, -1.769, -122.36, -8.232, -4.900, -14.896,, 0.4819, -0.01462, -0.00552, -0.87601,
 14:58:56.943,d3:c7:8d:a5:a9:b5, 2015-01-01 00:03:47.240, 0.03, -0.004, 1.009, 0, -0.061, 0, -0.247, -1.769, -122.36, -8.232, -4.900, -14.896,, 0.4819, -0.01462, -0.00552, -0.87601,
 14:58:56.970,d3:c7:8d:a5:a9:b5, 2015-01-01 00:03:47.240, 0.03, -0.004, 1.009, 0, -0.061, 0, -0.247, -1.769, -122.36, -8.232, -4.900, -14.896,, 0.4819, -0.01462, -0.00552, -0.87601,
 14:58:56.970,d3:c7:8d:a5:a9:b5, 2015-01-01 00:03:47.240, 0.03, -0.004, 1.01, 0, -0.183, 0, -0.247, -1.774, -122.36, -8.232, -4.900, -14.896,, 0.4819, -0.01462, -0.00552, -0.87601,
 14:58:56.970,d3:c7:8d:a5:a9:b5, 2015-01-01 00:03:47.240, 0.031, -0.004, 1.01, 0, -0.183, 0, -0.247, -1.774, -122.36, -8.232, -4.900, -14.896,, 0.4819, -0.01462, -0.00552, -0.87601,
 14:58:56.970,d3:c7:8d:a5:a9:b5, 2015-01-01 00:03:47.240, 0.031, -0.005, 1.011, 0, -0.183, 0, -0.247, -1.774, -122.36, -8.232, -4.900, -14.896,, 0.4819, -0.01462, -0.00552, -0.87601,
 14:58:57.003,d3:c7:8d:a5:a9:b5, 2015-01-01 00:03:47.240, 0.033, -0.005, 1.011, 0, -0.183, 0, -0.247, -1.78, -122.36, -8.232, -4.900, -14.896,, 0.4819, -0.01462, -0.00552, -0.87601,
 14:58:57.003,d3:c7:8d:a5:a9:b5, 2015-01-01 00:03:47.240, 0.033, -0.005, 1.01, 0, -0.061, 0, -0.247, -1.78, -122.36, -8.232, -4.900, -14.896,, 0.4819, -0.01462, -0.00552, -0.87601,
 14:58:57.004,d3:c7:8d:a5:a9:b5, 2015-01-01 00:03:47.240, 0.031, -0.005, 1.01, 0, -0.061, 0, -0.253, -1.78, -122.36, -8.232, -4.900, -14.896,, 0.4819, -0.01462, -0.00552, -0.87601,
 14:58:57.004,d3:c7:8d:a5:a9:b5, 2015-01-01 00:03:47.240, 0.031, -0.004, 1.01, 0.122, 0.061, 0, -0.247, -1.78, -122.36, -8.232, -4.900, -14.896,, 0.4819, -0.01462, -0.00552, -0.87601,
 14:58:57.063,d3:c7:8d:a5:a9:b5, 2015-01-01 00:03:47.240, 0.03, -0.004, 1.01, 0.122, 0.061, 0, -0.247, -1.78, -122.36, -8.232, -4.900, -14.896, 23.37, 0.4819, -0.01462, -0.00552, -0.87601,
 14:58:57.064,d3:c7:8d:a5:a9:b5, 2015-01-01 00:03:47.240, 0.03, -0.003, 1.01, 0, -0.061, 0, -0.247, -1.78, -122.36, -8.232, -4.900, -14.896, 23.37, 0.4819, -0.01462, -0.00552, -0.87601,
 14:58:57.064,d3:c7:8d:a5:a9:b5, 2015-01-01 00:03:47.240, 0.033, -0.003, 1.01, 0, -0.061, 0, -0.247, -1.78, -122.36, -8.232, -4.900, -14.896, 23.37, 0.4819, -0.01462, -0.00552, -0.87601,
 14:58:57.064,d3:c7:8d:a5:a9:b5, 2015-01-01 00:03:47.240, 0.033, -0.004, 1.011, 0, 0.061, 0, -0.247, -1.78, -122.36, -8.232, -4.900, -14.896, 23.37, 0.4819, -0.01462, -0.00552, -0.87601,
 14:58:57.091,d3:c7:8d:a5:a9:b5, 2015-01-01 00:03:47.685, 0.032, -0.004, 1.011, 0, 0.061, 0, -0.247, -1.78, -122.36, -8.232, -4.900, -14.896, 23.37, 0.4819, -0.01462, -0.00552, -0.87601,
 14:58:57.091,d3:c7:8d:a5:a9:b5, 2015-01-01 00:03:47.685, 0.032, -0.004, 1.012, 0, 0.427, 0, -0.247, -1.774, -122.36, -8.232, -4.900, -14.896, 23.37, 0.4819, -0.01462, -0.00552, -0.87601,
 14:58:57.091,d3:c7:8d:a5:a9:b5, 2015-01-01 00:03:47.685, 0.031, -0.004, 1.012, 0, 0.427, 0, -0.247, -1.769, -122.36, -8.232, -4.900, -14.896, 23.37, 0.4819, -0.01462, -0.00552, -0.87601,
 14:58:57.091,d3:c7:8d:a5:a9:b5, 2015-01-01 00:03:47.685, 0.031, -0.005, 1.011, 0, 0.305, 0, -0.247, -1.763, -122.36, -8.232, -4.900, -14.896, 23.37, 0.4819, -0.01462, -0.00552, -0.87601,
 14:58:57.124,d3:c7:8d:a5:a9:b5, 2015-01-01 00:03:47.685, 0.03, -0.005, 1.011, 0, 0.305, 0, -0.247, -1.763, -122.36, -8.232, -4.900, -14.896, 23.37, 0.4819, -0.01462, -0.00552, -0.87601,
 14:58:57.124,d3:c7:8d:a5:a9:b5, 2015-01-01 00:03:47.685, 0.03, -0.003, 1.01, 0, 0.183, 0, -0.247, -1.763, -122.36, -8.232, -4.900, -14.896, 23.37, 0.4819, -0.01462, -0.00552, -0.87601,
 14:58:57.124,d3:c7:8d:a5:a9:b5, 2015-01-01 00:03:47.685, 0.032, -0.003, 1.01, 0, 0.183, 0, -0.247, -1.758, -122.36, -8.232, -4.900, -14.896, 23.37, 0.4819, -0.01462, -0.00552, -0.87601,
 14:58:57.124,d3:c7:8d:a5:a9:b5, 2015-01-01 00:03:47.685, 0.032, -0.005, 1.01, 0, 0.305, 0, -0.247, -1.758, -122.36, -8.232, -4.900, -14.896, 23.37, 0.4819, -0.01462, -0.00552, -0.87601,
 14:58:57.181,d3:c7:8d:a5:a9:b5, 2015-01-01 00:03:47.685, 0.03, -0.005, 1.01, 0, 0.305, 0, -0.247, -1.752, -122.36, -8.232, -4.900, -14.896, 23.37, 0.4819, -0.01462, -0.00552, -0.87601,
 14:58:57.181,d3:c7:8d:a5:a9:b5, 2015-01-01 00:03:47.685, 0.03, -0.004, 1.012, 0, 0.549, 0, -0.247, -1.747, -122.36, -8.232, -4.900, -14.896, 23.37, 0.4819, -0.01462, -0.00552, -0.87601,
 14:58:57.181,d3:c7:8d:a5:a9:b5, 2015-01-01 00:03:47.685, 0.028, -0.004, 1.012, 0, 0.549, 0, -0.247, -1.741, -122.36, -8.232, -4.900, -14.896, 23.37, 0.4819, -0.01462, -0.00552, -0.87601,
 14:58:57.181,d3:c7:8d:a5:a9:b5, 2015-01-01 00:03:47.685, 0.028, -0.005, 1.009, 0, 0.305, 0, -0.247, -1.741, -122.36, -8.232, -4.900, -14.896, 23.37, 0.4819, -0.01462, -0.00552, -0.87601,
 14:58:57.211,d3:c7:8d:a5:a9:b5, 2015-01-01 00:03:47.685, 0.03, -0.005, 1.009, 0, 0.305, 0, -0.247, -1.736, -122.36, -8.232, -4.900, -14.896, 23.37, 0.4819, -0.01462, -0.00552, -0.87601,
 14:58:57.211,d3:c7:8d:a5:a9:b5, 2015-01-01 00:03:47.685, 0.031, -0.004, 1.01, 0.122, 0, 0, -0.247, -1.736, -122.36, -8.232, -4.900, -14.896, 23.37, 0.4819, -0.01462, -0.00552, -0.87601,
 14:58:57.211,d3:c7:8d:a5:a9:b5, 2015-01-01 00:03:47.685, 0.031, -0.004, 1.01, 0, 0, 0, -0.247, -1.736, -122.36, -8.232, -4.900, -14.896, 23.37, 0.4819, -0.01462, -0.00552, -0.87601,
 14:58:57.211,d3:c7:8d:a5:a9:b5, 2015-01-01 00:03:47.685, 0.032, -0.004, 1.01, 0, 0, 0, -0.247, -1.736, -122.36, -8.232, -4.900, -14.896, 23.37, 0.4819, -0.01462, -0.00552, -0.87601,
 14:58:57.243,d3:c7:8d:a5:a9:b5, 2015-01-01 00:03:47.685, 0.032, -0.004, 1.01, 0, 0.122, 0, -0.247, -1.736, -122.36, -8.232, -4.900, -14.896, 23.37, 0.4819, -0.01462, -0.00552, -0.87601,
 14:58:57.243,d3:c7:8d:a5:a9:b5, 2015-01-01 00:03:47.685, 0.029, -0.004, 1.01, 0, 0.122, 0, -0.247, -1.736, -122.36, -8.232, -4.900, -14.896, 23.37, 0.4819, -0.01462, -0.00552, -0.87601,
 14:58:57.243,d3:c7:8d:a5:a9:b5, 2015-01-01 00:03:47.685, 0.029, -0.005, 1.011, 0.061, 0, 0, -0.247, -1.736, -122.36, -8.232, -4.900, -14.896, 23.37, 0.4819, -0.01462, -0.00552, -0.87601,
 14:58:57.244,d3:c7:8d:a5:a9:b5, 2015-01-01 00:03:47.685, 0.031, -0.005, 1.011, 0.061, 0, 0, -0.247, -1.736, -122.36, -8.232, -4.900, -14.896, 23.37, 0.4819, -0.01462, -0.00552, -0.87601,
 14:58:57.301,d3:c7:8d:a5:a9:b5, 2015-01-01 00:03:47.685, 0.031, -0.004, 1.01, 0, 0, 0, -0.247, -1.736, -122.36, -8.232, -4.900, -14.896, 23.37, 0.4819, -0.01462, -0.00552, -0.87601,
 14:58:57.303,d3:c7:8d:a5:a9:b5, 2015-01-01 00:03:47.685, 0.032, -0.004, 1.01, 0, 0, 0, -0.247, -1.736, -122.36, -8.232, -4.900, -14.896, 23.37, 0.4819, -0.01462, -0.00552, -0.87601,
 14:58:57.303,d3:c7:8d:a5:a9:b5, 2015-01-01 00:03:47.685, 0.032, -0.004, 1.011, 0, 0.122, 0, -0.247, -1.736, -122.36, -8.232, -4.900, -14.896, 23.37, 0.4819, -0.01462, -0.00552, -0.87601,
 14:58:57.303,d3:c7:8d:a5:a9:b5, 2015-01-01 00:03:47.685, 0.031, -0.004, 1.011, 0, 0.122, 0, -0.247, -1.736, -122.36, -8.232, -4.900, -14.896, 23.37, 0.4819, -0.01462, -0.00552, -0.87601,
 14:58:57.331,d3:c7:8d:a5:a9:b5, 2015-01-01 00:03:47.685, 0.031, -0.005, 1.011, 0, 0.183, 0, -0.247, -1.73, -122.36, -8.428, -4.900, -14.798, 23.37, 0.4819, -0.01462, -0.00552, -0.87601,
 14:58:57.331,d3:c7:8d:a5:a9:b5, 2015-01-01 00:03:47.685, 0.029, -0.005, 1.011, 0, 0.183, 0, -0.247, -1.73, -122.36, -8.428, -4.900, -14.798, 23.37, 0.4819, -0.01462, -0.00552, -0.87601,
 14:58:57.331,d3:c7:8d:a5:a9:b5, 2015-01-01 00:03:47.685, 0.029, -0.004, 1.011, 0.061, 0, 0, -0.247, -1.73, -122.36, -8.428, -4.900, -14.798, 23.37, 0.4819, -0.01462, -0.00552, -0.87601,
 14:58:57.332,d3:c7:8d:a5:a9:b5, 2015-01-01 00:03:47.685, 0.031, -0.004, 1.011, 0.061, 0, 0, -0.247, -1.73, -122.36, -8.428, -4.900, -14.798, 23.37, 0.4819, -0.01462, -0.00552, -0.87601,
 14:58:57.361,d3:c7:8d:a5:a9:b5, 2015-01-01 00:03:47.685, 0.031, -0.004, 1.009, 0, 0, 0, -0.247, -1.73, -122.36, -8.428, -4.900, -14.798, 23.37, 0.4819, -0.01462, -0.00552, -0.87601,
 14:58:57.361,d3:c7:8d:a5:a9:b5, 2015-01-01 00:03:47.685, 0.031, -0.004, 1.009, 0, 0, 0, -0.247, -1.73, -122.36, -8.428, -4.900, -14.798, 23.37, 0.4819, -0.01462, -0.00552, -0.87601,
 14:58:57.361,d3:c7:8d:a5:a9:b5, 2015-01-01 00:03:47.685, 0.031, -0.004, 1.01, 0, 0.305, 0, -0.247, -1.73, -122.36, -8.428, -4.900, -14.798, 23.37, 0.4819, -0.01462, -0.00552, -0.87601,
 14:58:57.361,d3:c7:8d:a5:a9:b5, 2015-01-01 00:03:47.685, 0.029, -0.004, 1.01, 0, 0.305, 0, -0.247, -1.725, -122.36, -8.428, -4.900, -14.798, 23.37, 0.4819, -0.01462, -0.00552, -0.87601,
 14:58:57.423,d3:c7:8d:a5:a9:b5, 2015-01-01 00:03:47.685, 0.029, -0.005, 1.01, 0, 0.305, 0, -0.247, -1.725, -122.36, -8.428, -4.900, -14.798, 23.37, 0.4819, -0.01425, -0.00537, -0.87604,
 14:58:57.423,d3:c7:8d:a5:a9:b5, 2015-01-01 00:03:47.685, 0.029, -0.005, 1.01, 0, 0.305, 0, -0.247, -1.719, -122.36, -8.428, -4.900, -14.798, 23.37, 0.4819, -0.01425, -0.00537, -0.87604,
 14:58:57.423,d3:c7:8d:a5:a9:b5, 2015-01-01 00:03:47.685, 0.029, -0.005, 1.01, 0, 0.061, 0, -0.247, -1.719, -122.36, -8.428, -4.900, -14.798, 23.37, 0.4819, -0.01425, -0.00537, -0.87604,
 14:58:57.423,d3:c7:8d:a5:a9:b5, 2015-01-01 00:03:47.685, 0.03, -0.005, 1.01, 0, 0.061, 0, -0.247, -1.719, -122.36, -8.428, -4.900, -14.798, 23.37, 0.4819, -0.01425, -0.00537, -0.87604,
 14:58:57.451,d3:c7:8d:a5:a9:b5, 2015-01-01 00:03:48.045, 0.03, -0.004, 1.01, 0, 0, 0, -0.247, -1.714, -122.36, -8.428, -4.900, -14.798, 23.37, 0.4819, -0.01425, -0.00537, -0.87604,
 14:58:57.451,d3:c7:8d:a5:a9:b5, 2015-01-01 00:03:48.045, 0.033, -0.004, 1.01, 0, 0, 0, -0.247, -1.714, -122.36, -8.428, -4.900, -14.798, 23.37, 0.4819, -0.01425, -0.00537, -0.87604,
 14:58:57.451,d3:c7:8d:a5:a9:b5, 2015-01-01 00:03:48.045, 0.033, -0.004, 1.011, 0, 0.244, 0, -0.247, -1.714, -122.36, -8.428, -4.900, -14.798, 23.37, 0.4819, -0.01425, -0.00537, -0.87604,
 14:58:57.451,d3:c7:8d:a5:a9:b5, 2015-01-01 00:03:48.045, 0.031, -0.004, 1.011, 0, 0.244, 0, -0.247, -1.714, -122.36, -8.428, -4.900, -14.798, 23.37, 0.4819, -0.01425, -0.00537, -0.87604,
 14:58:57.481,d3:c7:8d:a5:a9:b5, 2015-01-01 00:03:48.045, 0.031, -0.005, 1.011, 0.061, 0.671, 0, -0.247, -1.708, -122.36, -8.428, -4.900, -14.798, 23.37, 0.4819, -0.01425, -0.00537, -0.87604,
 14:58:57.481,d3:c7:8d:a5:a9:b5, 2015-01-01 00:03:48.045, 0.026, -0.005, 1.011, 0.061, 0.671, 0, -0.247, -1.703, -122.36, -8.428, -4.900, -14.798, 23.37, 0.4819, -0.01425, -0.00537, -0.87604,
 14:58:57.481,d3:c7:8d:a5:a9:b5, 2015-01-01 00:03:48.045, 0.026, -0.004, 1.009, 0, 0.427, 0, -0.247, -1.697, -122.36, -8.428, -4.900, -14.798, 23.37, 0.4819, -0.01425, -0.00537, -0.87604,
 14:58:57.481,d3:c7:8d:a5:a9:b5, 2015-01-01 00:03:48.045, 0.029, -0.004, 1.009, 0, 0.427, 0, -0.247, -1.692, -122.36, -8.428, -4.900, -14.798, 23.37, 0.4819, -0.01425, -0.00537, -0.87604,
 14:58:57.541,d3:c7:8d:a5:a9:b5, 2015-01-01 00:03:48.045, 0.029, -0.004, 1.01, 0, 0.244, 0, -0.247, -1.692, -122.36, -8.428, -4.900, -14.798, 23.37, 0.4819, -0.01425, -0.00537, -0.87604,
 14:58:57.541,d3:c7:8d:a5:a9:b5, 2015-01-01 00:03:48.045, 0.029, -0.004, 1.01, 0, 0.244, 0, -0.247, -1.686, -122.36, -8.428, -4.900, -14.798, 23.37, 0.4819, -0.01425, -0.00537, -0.87604,
 14:58:57.541,d3:c7:8d:a5:a9:b5, 2015-01-01 00:03:48.045, 0.029, -0.004, 1.01, 0, 0.244, 0, -0.247, -1.686, -122.36, -8.428, -4.900, -14.798, 23.37, 0.4819, -0.01425, -0.00537, -0.87604,
 14:58:57.541,d3:c7:8d:a5:a9:b5, 2015-01-01 00:03:48.045, 0.031, -0.004, 1.01, 0, 0.244, 0, -0.247, -1.681, -122.36, -8.428, -4.900, -14.798, 23.37, 0.4819, -0.01425, -0.00537, -0.87604,
 14:58:57.571,d3:c7:8d:a5:a9:b5, 2015-01-01 00:03:48.045, 0.031, -0.005, 1.009, -0.061, 0.366, 0, -0.247, -1.681, -122.36, -8.428, -4.900, -14.798, 23.37, 0.4819, -0.01425, -0.00537, -0.87604,
 14:58:57.571,d3:c7:8d:a5:a9:b5, 2015-01-01 00:03:48.045, 0.031, -0.005, 1.009, -0.061, 0.366, 0, -0.247, -1.675, -122.36, -8.428, -4.900, -14.798, 23.37, 0.4819, -0.01425, -0.00537, -0.87604,
 14:58:57.571,d3:c7:8d:a5:a9:b5, 2015-01-01 00:03:48.045, 0.031, -0.005, 1.012, 0.061, 0.732, 0, -0.247, -1.67, -122.36, -8.428, -4.900, -14.798, 23.37, 0.4819, -0.01425, -0.00537, -0.87604,
 14:58:57.571,d3:c7:8d:a5:a9:b5, 2015-01-01 00:03:48.045, 0.024, -0.005, 1.012, 0.061, 0.732, 0, -0.247, -1.664, -122.36, -8.428, -4.900, -14.798, 23.37, 0.4819, -0.01425, -0.00537, -0.87604,
 14:58:57.601,d3:c7:8d:a5:a9:b5, 2015-01-01 00:03:48.045, 0.024, -0.003, 1.008, 0, 0.793, 0, -0.247, -1.653, -122.36, -8.428, -4.900, -14.798, 23.37, 0.4819, -0.01425, -0.00537, -0.87604,
 14:58:57.601,d3:c7:8d:a5:a9:b5, 2015-01-01 00:03:48.045, 0.026, -0.003, 1.008, 0, 0.793, 0, -0.247, -1.648, -122.36, -8.428, -4.900, -14.798, 23.37, 0.4819, -0.01425, -0.00537, -0.87604,
 14:58:57.601,d3:c7:8d:a5:a9:b5, 2015-01-01 00:03:48.045, 0.026, -0.005, 1.009, 0, 0, 0, -0.247, -1.642, -122.36, -8.428, -4.900, -14.798, 23.37, 0.4819, -0.01425, -0.00537, -0.87604,
 14:58:57.601,d3:c7:8d:a5:a9:b5, 2015-01-01 00:03:48.045, 0.03, -0.005, 1.009, 0, 0, 0, -0.247, -1.642, -122.36, -8.428, -4.900, -14.798, 23.37, 0.4819, -0.01425, -0.00537, -0.87604,
 14:58:57.662,d3:c7:8d:a5:a9:b5, 2015-01-01 00:03:48.045, 0.03, -0.005, 1.01, 0.061, -0.183, 0, -0.247, -1.642, -122.36, -8.428, -4.900, -14.798, 23.37, 0.4819, -0.01425, -0.00537, -0.87604,
 14:58:57.662,d3:c7:8d:a5:a9:b5, 2015-01-01 00:03:48.045, 0.033, -0.005, 1.01, 0.061, -0.183, 0, -0.247, -1.648, -122.36, -8.428, -4.900, -14.798, 23.37, 0.4819, -0.01425, -0.00537, -0.87604,
 14:58:57.662,d3:c7:8d:a5:a9:b5, 2015-01-01 00:03:48.045, 0.033, -0.004, 1.01, 0, 0.244, 0, -0.247, -1.648, -122.36, -8.428, -4.900, -14.798, 23.37, 0.4819, -0.01425, -0.00537, -0.87604,
 14:58:57.662,d3:c7:8d:a5:a9:b5, 2015-01-01 00:03:48.045, 0.031, -0.004, 1.01, 0, 0.244, 0, -0.247, -1.642, -122.36, -8.428, -4.900, -14.798, 23.37, 0.4819, -0.01425, -0.00537, -0.87604,
 14:58:57.691,d3:c7:8d:a5:a9:b5, 2015-01-01 00:03:48.045, 0.031, -0.005, 1.011, 0.061, 0.732, 0, -0.247, -1.637, -122.36, -8.330, -4.900, -14.602, 23.37, 0.4819, -0.01425, -0.00537, -0.87604,
 14:58:57.691,d3:c7:8d:a5:a9:b5, 2015-01-01 00:03:48.045, 0.025, -0.005, 1.011, 0.061, 0.732, 0, -0.247, -1.631, -122.36, -8.330, -4.900, -14.602, 23.37, 0.4819, -0.01425, -0.00537, -0.87604,
 14:58:57.691,d3:c7:8d:a5:a9:b5, 2015-01-01 00:03:48.045, 0.025, -0.004, 1.01, 0, 0.793, 0, -0.247, -1.62, -122.36, -8.330, -4.900, -14.602, 23.37, 0.4819, -0.01425, -0.00537, -0.87604,
 14:58:57.691,d3:c7:8d:a5:a9:b5, 2015-01-01 00:03:48.045, 0.025, -0.004, 1.01, 0, 0.793, 0, -0.247, -1.615, -122.36, -8.330, -4.900, -14.602, 23.37, 0.4819, -0.01425, -0.00537, -0.87604,
 14:58:57.723,d3:c7:8d:a5:a9:b5, 2015-01-01 00:03:48.045, 0.025, -0.004, 1.009, 0, 0.366, 0, -0.247, -1.609, -122.36, -8.330, -4.900, -14.602, 23.37, 0.4819, -0.01425, -0.00537, -0.87604,
 14:58:57.723,d3:c7:8d:a5:a9:b5, 2015-01-01 00:03:48.045, 0.027, -0.004, 1.009, 0, 0.366, 0, -0.247, -1.609, -122.36, -8.330, -4.900, -14.602, 23.37, 0.4819, -0.01425, -0.00537, -0.87604,
 14:58:57.724,d3:c7:8d:a5:a9:b5, 2015-01-01 00:03:48.045, 0.027, -0.005, 1.009, 0, 0.183, 0, -0.247, -1.604, -122.36, -8.330, -4.900, -14.602, 23.37, 0.4819, -0.01425, -0.00537, -0.87604,
 14:58:57.724,d3:c7:8d:a5:a9:b5, 2015-01-01 00:03:48.045, 0.027, -0.005, 1.009, 0, 0.183, 0, -0.247, -1.604, -122.36, -8.330, -4.900, -14.602, 23.37, 0.4819, -0.01425, -0.00537, -0.87604,
 14:58:57.783,d3:c7:8d:a5:a9:b5, 2015-01-01 00:03:48.045, 0.027, -0.004, 1.01, 0, 0.061, 0, -0.247, -1.604, -122.36, -8.330, -4.900, -14.602, 23.37, 0.4819, -0.01334, -0.00485, -0.87604,
 14:58:57.783,d3:c7:8d:a5:a9:b5, 2015-01-01 00:03:48.045, 0.027, -0.004, 1.01, 0, 0.061, 0, -0.247, -1.604, -122.36, -8.330, -4.900, -14.602, 23.37, 0.4819, -0.01334, -0.00485, -0.87604,
 14:58:57.783,d3:c7:8d:a5:a9:b5, 2015-01-01 00:03:48.045, 0.027, -0.004, 1.01, 0, 0, 0, -0.247, -1.604, -122.36, -8.330, -4.900, -14.602, 23.37, 0.4819, -0.01334, -0.00485, -0.87604,
 14:58:57.783,d3:c7:8d:a5:a9:b5, 2015-01-01 00:03:48.045, 0.028, -0.004, 1.01, 0, 0, 0, -0.247, -1.604, -122.36, -8.330, -4.900, -14.602, 23.37, 0.4819, -0.01334, -0.00485, -0.87604,
 14:58:57.811,d3:c7:8d:a5:a9:b5, 2015-01-01 00:03:48.400, 0.028, -0.005, 1.01, 0, 0, 0, -0.247, -1.604, -122.36, -8.330, -4.900, -14.602, 23.37, 0.4819, -0.01334, -0.00485, -0.87604,
 14:58:57.811,d3:c7:8d:a5:a9:b5, 2015-01-01 00:03:48.400, 0.028, -0.005, 1.01, 0, 0, 0, -0.247, -1.599, -122.36, -8.330, -4.900, -14.602, 23.37, 0.4819, -0.01334, -0.00485, -0.87604,
 14:58:57.811,d3:c7:8d:a5:a9:b5, 2015-01-01 00:03:48.400, 0.028, -0.004, 1.009, 0.061, 0.061, 0, -0.247, -1.599, -122.36, -8.330, -4.900, -14.602, 23.37, 0.4819, -0.01334, -0.00485, -0.87604,
 14:58:57.812,d3:c7:8d:a5:a9:b5, 2015-01-01 00:03:48.400, 0.026, -0.004, 1.009, 0.061, 0.061, 0, -0.247, -1.599, -122.36, -8.330, -4.900, -14.602, 23.37, 0.4819, -0.01334, -0.00485, -0.87604,
 14:58:57.841,d3:c7:8d:a5:a9:b5, 2015-01-01 00:03:48.400, 0.026, -0.003, 1.01, 0.061, 0, 0, -0.247, -1.599, -122.36, -8.330, -4.900, -14.602, 23.37, 0.4819, -0.01334, -0.00485, -0.87604,
 14:58:57.841,d3:c7:8d:a5:a9:b5, 2015-01-01 00:03:48.400, 0.028, -0.003, 1.01, 0.061, 0, 0, -0.247, -1.599, -122.36, -8.330, -4.900, -14.602, 23.37, 0.4819, -0.01334, -0.00485, -0.87604,
 14:58:57.841,d3:c7:8d:a5:a9:b5, 2015-01-01 00:03:48.400, 0.028, -0.005, 1.01, 0.061, 0.061, 0, -0.242, -1.599, -122.36, -8.330, -4.900, -14.602, 23.37, 0.4819, -0.01334, -0.00485, -0.87604,
 14:58:57.841,d3:c7:8d:a5:a9:b5, 2015-01-01 00:03:48.400, 0.028, -0.005, 1.01, 0.061, 0.061, 0, -0.242, -1.599, -122.36, -8.330, -4.900, -14.602, 23.37, 0.4819, -0.01334, -0.00485, -0.87604,
 14:58:57.901,d3:c7:8d:a5:a9:b5, 2015-01-01 00:03:48.400, 0.028, -0.005, 1.01, 0.122, 0, 0, -0.242, -1.599, -122.36, -8.330, -4.900, -14.602, 23.37, 0.4819, -0.01334, -0.00485, -0.87604,
 14:58:57.901,d3:c7:8d:a5:a9:b5, 2015-01-01 00:03:48.400, 0.028, -0.005, 1.01, 0.122, 0, 0, -0.242, -1.599, -122.36, -8.330, -4.900, -14.602, 23.37, 0.4819, -0.01334, -0.00485, -0.87604,
 14:58:57.901,d3:c7:8d:a5:a9:b5, 2015-01-01 00:03:48.400, 0.028, -0.003, 1.01, 0.122, 0, 0, -0.242, -1.599, -122.36, -8.330, -4.900, -14.602, 23.37, 0.4819, -0.01334, -0.00485, -0.87604,
 14:58:57.901,d3:c7:8d:a5:a9:b5, 2015-01-01 00:03:48.400, 0.027, -0.003, 1.01, 0.122, 0, 0, -0.242, -1.599, -122.366, -8.330, -4.900, -14.602, 23.37, 0.4819, -0.01334, -0.00485, -0.87604,
 14:58:57.931,d3:c7:8d:a5:a9:b5, 2015-01-01 00:03:48.400, 0.027, -0.003, 1.009, 0, -0.061, 0, -0.242, -1.599, -122.366, -8.330, -4.900, -14.602, 23.37, 0.4819, -0.01334, -0.00485, -0.87604,
 14:58:57.931,d3:c7:8d:a5:a9:b5, 2015-01-01 00:03:48.400, 0.032, -0.003, 1.009, 0, -0.061, 0, -0.242, -1.599, -122.366, -8.330, -4.900, -14.602, 23.37, 0.4819, -0.01334, -0.00485, -0.87604,
 14:58:57.931,d3:c7:8d:a5:a9:b5, 2015-01-01 00:03:48.400, 0.032, -0.005, 1.01, 0, 0.183, 0, -0.242, -1.599, -122.366, -8.330, -4.900, -14.602, 23.37, 0.4819, -0.01334, -0.00485, -0.87604,
 14:58:57.931,d3:c7:8d:a5:a9:b5, 2015-01-01 00:03:48.400, 0.028, -0.005, 1.01, 0, 0.183, 0, -0.242, -1.593, -122.366, -8.330, -4.900, -14.602, 23.37, 0.4819, -0.01334, -0.00485, -0.87604,
 14:58:57.962,d3:c7:8d:a5:a9:b5, 2015-01-01 00:03:48.400, 0.028, -0.005, 1.01, 0, 0.61, 0, -0.242, -1.588, -122.366, -8.330, -4.900, -14.602, 23.37, 0.4819, -0.01334, -0.00485, -0.87604,
 14:58:57.962,d3:c7:8d:a5:a9:b5, 2015-01-01 00:03:48.400, 0.025, -0.005, 1.01, 0, 0.61, 0, -0.242, -1.582, -122.366, -8.330, -4.900, -14.602, 23.37, 0.4819, -0.01334, -0.00485, -0.87604,
 14:58:57.962,d3:c7:8d:a5:a9:b5, 2015-01-01 00:03:48.400, 0.025, -0.004, 1.009, 0, 0.305, 0, -0.242, -1.582, -122.366, -8.330, -4.900, -14.602, 23.37, 0.4819, -0.01334, -0.00485, -0.87604,
 14:58:57.962,d3:c7:8d:a5:a9:b5, 2015-01-01 00:03:48.400, 0.028, -0.004, 1.009, 0, 0.305, 0, -0.242, -1.577, -122.366, -8.330, -4.900, -14.602, 23.37, 0.4819, -0.01334, -0.00485, -0.87604,
 14:58:58.023,d3:c7:8d:a5:a9:b5, 2015-01-01 00:03:48.400, 0.028, -0.004, 1.009, 0, 0.122, 0, -0.242, -1.577, -122.366, -8.330, -4.900, -14.602, 23.37, 0.4819, -0.01334, -0.00485, -0.87604,
 14:58:58.023,d3:c7:8d:a5:a9:b5, 2015-01-01 00:03:48.400, 0.028, -0.004, 1.009, 0, 0.122, 0, -0.242, -1.577, -122.366, -8.330, -4.900, -14.602, 23.37, 0.4819, -0.01334, -0.00485, -0.87604,
 14:58:58.024,d3:c7:8d:a5:a9:b5, 2015-01-01 00:03:48.400, 0.028, -0.003, 1.008, -0.061, 0.305, 0, -0.242, -1.571, -122.366, -8.330, -4.900, -14.602, 23.37, 0.4819, -0.01334, -0.00485, -0.87604,
 14:58:58.024,d3:c7:8d:a5:a9:b5, 2015-01-01 00:03:48.400, 0.027, -0.003, 1.008, -0.061, 0.305, 0, -0.242, -1.571, -122.366, -8.330, -4.900, -14.602, 23.37, 0.4819, -0.01334, -0.00485, -0.87604,
 14:58:58.051,d3:c7:8d:a5:a9:b5, 2015-01-01 00:03:48.400, 0.027, -0.005, 1.01, -0.061, 0.244, 0, -0.242, -1.566, -122.366, -8.330, -4.900, -14.700, 23.37, 0.4819, -0.01334, -0.00485, -0.87604,
 14:58:58.051,d3:c7:8d:a5:a9:b5, 2015-01-01 00:03:48.400, 0.025, -0.005, 1.01, -0.061, 0.244, 0, -0.242, -1.566, -122.366, -8.330, -4.900, -14.700, 23.37, 0.4819, -0.01334, -0.00485, -0.87604,
 14:58:58.051,d3:c7:8d:a5:a9:b5, 2015-01-01 00:03:48.400, 0.025, -0.004, 1.009, 0, 0.122, 0, -0.242, -1.566, -122.366, -8.330, -4.900, -14.700, 23.37, 0.4819, -0.01334, -0.00485, -0.87604,
 14:58:58.051,d3:c7:8d:a5:a9:b5, 2015-01-01 00:03:48.400, 0.026, -0.004, 1.009, 0, 0.122, 0, -0.242, -1.56, -122.366, -8.330, -4.900, -14.700, 23.37, 0.4819, -0.01334, -0.00485, -0.87604,
 14:58:58.081,d3:c7:8d:a5:a9:b5, 2015-01-01 00:03:48.400, 0.026, -0.004, 1.009, 0, -0.122, 0, -0.242, -1.566, -122.366, -8.330, -4.900, -14.700, 23.37, 0.4819, -0.01334, -0.00485, -0.87604,
 14:58:58.081,d3:c7:8d:a5:a9:b5, 2015-01-01 00:03:48.400, 0.029, -0.004, 1.009, 0, -0.122, 0, -0.242, -1.566, -122.366, -8.330, -4.900, -14.700, 23.37, 0.4819, -0.01334, -0.00485, -0.87604,
 14:58:58.081,d3:c7:8d:a5:a9:b5, 2015-01-01 00:03:48.400, 0.03, -0.004, 1.009, 0, -0.061, 0, -0.242, -1.566, -122.366, -8.330, -4.900, -14.700, 23.37, 0.4819, -0.01334, -0.00485, -0.87604,
 14:58:58.081,d3:c7:8d:a5:a9:b5, 2015-01-01 00:03:48.400, 0.03, -0.004, 1.012, 0, 0.183, 0, -0.242, -1.566, -122.366, -8.330, -4.900, -14.700, 23.37, 0.4819, -0.01334, -0.00485, -0.87604,
 14:58:58.142,d3:c7:8d:a5:a9:b5, 2015-01-01 00:03:48.400, 0.027, -0.004, 1.012, 0, 0.183, 0, -0.242, -1.56, -122.366, -8.330, -4.900, -14.700, 23.37, 0.4819, -0.013, -0.0047, -0.87604,
 14:58:58.142,d3:c7:8d:a5:a9:b5, 2015-01-01 00:03:48.400, 0.027, -0.005, 1.008, 0, 0.488, 0, -0.242, -1.56, -122.366, -8.330, -4.900, -14.700, 23.37, 0.4819, -0.013, -0.0047, -0.87604,
 14:58:58.143,d3:c7:8d:a5:a9:b5, 2015-01-01 00:03:48.400, 0.026, -0.005, 1.008, 0, 0.488, 0, -0.242, -1.555, -122.366, -8.330, -4.900, -14.700, 23.37, 0.4819, -0.013, -0.0047, -0.87604,
 14:58:58.143,d3:c7:8d:a5:a9:b5, 2015-01-01 00:03:48.400, 0.026, -0.004, 1.009, 0, 0.183, 0, -0.242, -1.549, -122.366, -8.330, -4.900, -14.700, 23.37, 0.4819, -0.013, -0.0047, -0.87604,
 14:58:58.176,d3:c7:8d:a5:a9:b5, 2015-01-01 00:03:48.760, 0.027, -0.004, 1.009, 0, 0.183, 0, -0.242, -1.549, -122.366, -8.330, -4.900, -14.700, 23.37, 0.4819, -0.013, -0.0047, -0.87604,
 14:58:58.177,d3:c7:8d:a5:a9:b5, 2015-01-01 00:03:48.760, 0.027, -0.004, 1.008, 0, 0, 0, -0.242, -1.549, -122.366, -8.330, -4.900, -14.700, 23.37, 0.4819, -0.013, -0.0047, -0.87604,
 14:58:58.177,d3:c7:8d:a5:a9:b5, 2015-01-01 00:03:48.760, 0.028, -0.004, 1.008, 0, 0, 0, -0.242, -1.549, -122.366, -8.330, -4.900, -14.700, 23.37, 0.4819, -0.013, -0.0047, -0.87604,
 14:58:58.177,d3:c7:8d:a5:a9:b5, 2015-01-01 00:03:48.760, 0.028, -0.003, 1.01, -0.061, 0.061, 0, -0.242, -1.549, -122.366, -8.330, -4.900, -14.700, 23.37, 0.4819, -0.013, -0.0047, -0.87604,
 14:58:58.238,d3:c7:8d:a5:a9:b5, 2015-01-01 00:03:48.760, 0.028, -0.003, 1.01, -0.061, 0.061, 0, -0.242, -1.549, -122.366, -8.330, -4.900, -14.700, 23.37, 0.4819, -0.013, -0.0047, -0.87604,
 14:58:58.238,d3:c7:8d:a5:a9:b5, 2015-01-01 00:03:48.760, 0.028, -0.004, 1.01, -0.061, 0.488, 0, -0.247, -1.544, -122.366, -8.330, -4.900, -14.700, 23.37, 0.4819, -0.013, -0.0047, -0.87604,
 14:58:58.238,d3:c7:8d:a5:a9:b5, 2015-01-01 00:03:48.760, 0.023, -0.004, 1.01, -0.061, 0.488, 0, -0.247, -1.538, -122.366, -8.330, -4.900, -14.700, 23.37, 0.4819, -0.013, -0.0047, -0.87604,
 14:58:58.238,d3:c7:8d:a5:a9:b5, 2015-01-01 00:03:48.760, 0.023, -0.004, 1.008, 0, 0.305, 0, -0.247, -1.538, -122.366, -8.330, -4.900, -14.700, 23.37, 0.4819, -0.013, -0.0047, -0.87604,
 14:58:58.261,d3:c7:8d:a5:a9:b5, 2015-01-01 00:03:48.760, 0.024, -0.004, 1.008, 0, 0.305, 0, -0.247, -1.533, -122.366, -8.330, -4.900, -14.700, 23.37, 0.4819, -0.013, -0.0047, -0.87604,
 14:58:58.261,d3:c7:8d:a5:a9:b5, 2015-01-01 00:03:48.760, 0.024, -0.004, 1.008, -0.061, -0.122, 0, -0.247, -1.533, -122.366, -8.330, -4.900, -14.700, 23.37, 0.4819, -0.013, -0.0047, -0.87604,
 14:58:58.261,d3:c7:8d:a5:a9:b5, 2015-01-01 00:03:48.760, 0.027, -0.004, 1.008, -0.061, -0.122, 0, -0.247, -1.533, -122.366, -8.330, -4.900, -14.700, 23.37, 0.4819, -0.013, -0.0047, -0.87604,
 14:58:58.261,d3:c7:8d:a5:a9:b5, 2015-01-01 00:03:48.760, 0.027, -0.004, 1.011, 0, -0.366, 0, -0.247, -1.538, -122.366, -8.330, -4.900, -14.700, 23.37, 0.4819, -0.013, -0.0047, -0.87604,
 14:58:58.294,d3:c7:8d:a5:a9:b5, 2015-01-01 00:03:48.760, 0.029, -0.004, 1.011, 0, -0.366, 0, -0.247, -1.538, -122.366, -8.330, -4.900, -14.700, 23.37, 0.4819, -0.013, -0.0047, -0.87604,
 14:58:58.294,d3:c7:8d:a5:a9:b5, 2015-01-01 00:03:48.760, 0.029, -0.004, 1.009, 0.061, 0.061, 0, -0.247, -1.538, -122.366, -8.330, -4.900, -14.700, 23.37, 0.4819, -0.013, -0.0047, -0.87604,
 14:58:58.295,d3:c7:8d:a5:a9:b5, 2015-01-01 00:03:48.760, 0.026, -0.004, 1.009, 0.061, 0.061, 0, -0.247, -1.538, -122.366, -8.330, -4.900, -14.700, 23.37, 0.4819, -0.013, -0.0047, -0.87604,
 14:58:58.295,d3:c7:8d:a5:a9:b5, 2015-01-01 00:03:48.760, 0.026, -0.003, 1.009, 0, 0, 0, -0.247, -1.538, -122.366, -8.330, -4.900, -14.700, 23.37, 0.4819, -0.013, -0.0047, -0.87604,
 14:58:58.352,d3:c7:8d:a5:a9:b5, 2015-01-01 00:03:48.760, 0.024, -0.003, 1.009, 0, 0, 0, -0.247, -1.538, -122.366, -8.330, -4.900, -14.700, 23.37, 0.4819, -0.013, -0.0047, -0.87604,
 14:58:58.352,d3:c7:8d:a5:a9:b5, 2015-01-01 00:03:48.760, 0.024, -0.005, 1.009, 0, -0.305, 0, -0.247, -1.544, -122.366, -8.330, -4.900, -14.700, 23.37, 0.4819, -0.013, -0.0047, -0.87604,
 14:58:58.354,d3:c7:8d:a5:a9:b5, 2015-01-01 00:03:48.760, 0.027, -0.005, 1.009, 0, -0.305, 0, -0.247, -1.544, -122.366, -8.330, -4.900, -14.700, 23.37, 0.4819, -0.013, -0.0047, -0.87604,
 14:58:58.354,d3:c7:8d:a5:a9:b5, 2015-01-01 00:03:48.760, 0.027, -0.005, 1.009, 0, -0.488, 0, -0.247, -1.549, -122.366, -8.330, -4.900, -14.700, 23.37, 0.4819, -0.013, -0.0047, -0.87604,
 14:58:58.381,d3:c7:8d:a5:a9:b5, 2015-01-01 00:03:48.760, 0.029, -0.005, 1.009, 0, -0.488, 0, -0.247, -1.555, -122.366, -8.232, -4.900, -14.602, 23.37, 0.4819, -0.013, -0.0047, -0.87604,
 14:58:58.381,d3:c7:8d:a5:a9:b5, 2015-01-01 00:03:48.760, 0.029, -0.004, 1.01, 0.061, -0.183, 0, -0.247, -1.555, -122.366, -8.232, -4.900, -14.602, 23.37, 0.4819, -0.013, -0.0047, -0.87604,
 14:58:58.381,d3:c7:8d:a5:a9:b5, 2015-01-01 00:03:48.760, 0.027, -0.004, 1.01, 0.061, -0.183, 0, -0.247, -1.555, -122.366, -8.232, -4.900, -14.602, 23.37, 0.4819, -0.013, -0.0047, -0.87604,
 14:58:58.381,d3:c7:8d:a5:a9:b5, 2015-01-01 00:03:48.760, 0.027, -0.004, 1.009, 0, 0.183, 0, -0.242, -1.555, -122.366, -8.232, -4.900, -14.602, 23.37, 0.4819, -0.013, -0.0047, -0.87604,
 14:58:58.411,d3:c7:8d:a5:a9:b5, 2015-01-01 00:03:48.760, 0.025, -0.004, 1.009, 0, 0.183, 0, -0.242, -1.555, -122.366, -8.232, -4.900, -14.602, 23.37, 0.4819, -0.013, -0.0047, -0.87604,
 14:58:58.411,d3:c7:8d:a5:a9:b5, 2015-01-01 00:03:48.760, 0.025, -0.004, 1.01, 0, 0, 0, -0.242, -1.555, -122.366, -8.232, -4.900, -14.602, 23.37, 0.4819, -0.013, -0.0047, -0.87604,
 14:58:58.411,d3:c7:8d:a5:a9:b5, 2015-01-01 00:03:48.760, 0.027, -0.004, 1.01, 0, 0, 0, -0.242, -1.555, -122.366, -8.232, -4.900, -14.602, 23.37, 0.4819, -0.013, -0.0047, -0.87604,
 14:58:58.411,d3:c7:8d:a5:a9:b5, 2015-01-01 00:03:48.760, 0.027, -0.005, 1.009, 0, -0.305, 0, -0.242, -1.555, -122.366, -8.232, -4.900, -14.602, 23.37, 0.4819, -0.013, -0.0047, -0.87604,
 14:58:58.473,d3:c7:8d:a5:a9:b5, 2015-01-01 00:03:48.760, 0.029, -0.005, 1.009, 0, -0.305, 0, -0.247, -1.56, -122.366, -8.232, -4.900, -14.602, 23.37, 0.4819, -0.01294, -0.00464, -0.87607,
 14:58:58.473,d3:c7:8d:a5:a9:b5, 2015-01-01 00:03:48.760, 0.029, -0.004, 1.01, 0, -0.183, 0, -0.247, -1.56, -122.366, -8.232, -4.900, -14.602, 23.37, 0.4819, -0.01294, -0.00464, -0.87607,
 14:58:58.473,d3:c7:8d:a5:a9:b5, 2015-01-01 00:03:48.760, 0.029, -0.004, 1.01, 0, -0.183, 0, -0.247, -1.56, -122.366, -8.232, -4.900, -14.602, 23.37, 0.4819, -0.01294, -0.00464, -0.87607,
 14:58:58.474,d3:c7:8d:a5:a9:b5, 2015-01-01 00:03:48.760, 0.029, -0.004, 1.009, 0, 0.305, 0, -0.247, -1.56, -122.366, -8.232, -4.900, -14.602, 23.37, 0.4819, -0.01294, -0.00464, -0.87607,
 14:58:58.502,d3:c7:8d:a5:a9:b5, 2015-01-01 00:03:49.085, 0.024, -0.004, 1.009, 0, 0.305, 0, -0.247, -1.56, -122.366, -8.232, -4.900, -14.602, 23.37, 0.4819, -0.01294, -0.00464, -0.87607,
 14:58:58.502,d3:c7:8d:a5:a9:b5, 2015-01-01 00:03:49.085, 0.024, -0.004, 1.008, 0, 0.244, 0, -0.247, -1.555, -122.366, -8.232, -4.900, -14.602, 23.37, 0.4819, -0.01294, -0.00464, -0.87607,
 14:58:58.503,d3:c7:8d:a5:a9:b5, 2015-01-01 00:03:49.085, 0.025, -0.004, 1.008, 0, 0.244, 0, -0.247, -1.555, -122.366, -8.232, -4.900, -14.602, 23.37, 0.4819, -0.01294, -0.00464, -0.87607,
 14:58:58.503,d3:c7:8d:a5:a9:b5, 2015-01-01 00:03:49.085, 0.025, -0.005, 1.009, 0, 0, 0, -0.247, -1.549, -122.366, -8.232, -4.900, -14.602, 23.37, 0.4819, -0.01294, -0.00464, -0.87607,
 14:58:58.531,d3:c7:8d:a5:a9:b5, 2015-01-01 00:03:49.085, 0.028, -0.005, 1.009, 0, 0, 0, -0.247, -1.549, -122.366, -8.232, -4.900, -14.602, 23.37, 0.4819, -0.01294, -0.00464, -0.87607,
 14:58:58.531,d3:c7:8d:a5:a9:b5, 2015-01-01 00:03:49.085, 0.028, -0.005, 1.01, 0, -0.061, 0, -0.247, -1.549, -122.366, -8.232, -4.900, -14.602, 23.37, 0.4819, -0.01294, -0.00464, -0.87607,
 14:58:58.531,d3:c7:8d:a5:a9:b5, 2015-01-01 00:03:49.085, 0.026, -0.005, 1.01, 0, -0.061, 0, -0.247, -1.555, -122.366, -8.232, -4.900, -14.602, 23.37, 0.4819, -0.01294, -0.00464, -0.87607,
 14:58:58.531,d3:c7:8d:a5:a9:b5, 2015-01-01 00:03:49.085, 0.026, -0.004, 1.01, 0.061, 0.183, 0, -0.247, -1.549, -122.366, -8.232, -4.900, -14.602, 23.37, 0.4819, -0.01294, -0.00464, -0.87607,
 14:58:58.590,d3:c7:8d:a5:a9:b5, 2015-01-01 00:03:49.085, 0.024, -0.004, 1.01, 0.061, 0.183, 0, -0.242, -1.549, -122.366, -8.232, -4.900, -14.602, 23.37, 0.4819, -0.01294, -0.00464, -0.87607,
 14:58:58.590,d3:c7:8d:a5:a9:b5, 2015-01-01 00:03:49.085, 0.024, -0.004, 1.007, 0, -0.183, 0, -0.242, -1.549, -122.366, -8.232, -4.900, -14.602, 23.37, 0.4819, -0.01294, -0.00464, -0.87607,
 14:58:58.590,d3:c7:8d:a5:a9:b5, 2015-01-01 00:03:49.085, 0.027, -0.004, 1.007, 0, -0.183, 0, -0.242, -1.555, -122.366, -8.232, -4.900, -14.602, 23.37, 0.4819, -0.01294, -0.00464, -0.87607,
 14:58:58.590,d3:c7:8d:a5:a9:b5, 2015-01-01 00:03:49.085, 0.027, -0.003, 1.009, 0, -0.427, 0, -0.242, -1.555, -122.366, -8.232, -4.900, -14.602, 23.37, 0.4819, -0.01294, -0.00464, -0.87607,
 14:58:58.621,d3:c7:8d:a5:a9:b5, 2015-01-01 00:03:49.085, 0.03, -0.003, 1.009, 0, -0.427, 0, -0.242, -1.56, -122.366, -8.232, -4.900, -14.602, 23.37, 0.4819, -0.01294, -0.00464, -0.87607,
 14:58:58.621,d3:c7:8d:a5:a9:b5, 2015-01-01 00:03:49.085, 0.03, -0.004, 1.01, -0.061, -0.122, 0, -0.247, -1.56, -122.366, -8.232, -4.900, -14.602, 23.37, 0.4819, -0.01294, -0.00464, -0.87607,
 14:58:58.621,d3:c7:8d:a5:a9:b5, 2015-01-01 00:03:49.085, 0.027, -0.004, 1.01, -0.061, -0.122, 0, -0.247, -1.566, -122.366, -8.232, -4.900, -14.602, 23.37, 0.4819, -0.01294, -0.00464, -0.87607,
 14:58:58.621,d3:c7:8d:a5:a9:b5, 2015-01-01 00:03:49.085, 0.027, -0.006, 1.01, -0.061, 0.122, 0, -0.247, -1.56, -122.366, -8.232, -4.900, -14.602, 23.37, 0.4819, -0.01294, -0.00464, -0.87607,
 14:58:58.652,d3:c7:8d:a5:a9:b5, 2015-01-01 00:03:49.085, 0.026, -0.006, 1.01, -0.061, 0.122, 0, -0.247, -1.56, -122.366, -8.232, -4.900, -14.602, 23.37, 0.4819, -0.01294, -0.00464, -0.87607,
 14:58:58.652,d3:c7:8d:a5:a9:b5, 2015-01-01 00:03:49.085, 0.026, -0.004, 1.009, 0, 0.183, 0, -0.247, -1.56, -122.366, -8.232, -4.900, -14.602, 23.37, 0.4819, -0.01294, -0.00464, -0.87607,
 14:58:58.652,d3:c7:8d:a5:a9:b5, 2015-01-01 00:03:49.085, 0.027, -0.004, 1.009, 0, 0.183, 0, -0.247, -1.555, -122.366, -8.232, -4.900, -14.602, 23.37, 0.4819, -0.01294, -0.00464, -0.87607,
 14:58:58.652,d3:c7:8d:a5:a9:b5, 2015-01-01 00:03:49.085, 0.027, -0.003, 1.008, 0, 0, 0, -0.247, -1.555, -122.366, -8.232, -4.900, -14.602, 23.37, 0.4819, -0.01294, -0.00464, -0.87607,
 14:58:58.711,d3:c7:8d:a5:a9:b5, 2015-01-01 00:03:49.085, 0.029, -0.003, 1.008, 0, 0, 0, -0.247, -1.555, -122.366, -8.232, -4.900, -14.602, 23.37, 0.4819, -0.01294, -0.00464, -0.87607,
 14:58:58.711,d3:c7:8d:a5:a9:b5, 2015-01-01 00:03:49.085, 0.029, -0.004, 1.009, -0.061, -0.061, 0, -0.247, -1.555, -122.366, -8.232, -4.900, -14.602, 23.37, 0.4819, -0.01294, -0.00464, -0.87607,
 14:58:58.711,d3:c7:8d:a5:a9:b5, 2015-01-01 00:03:49.085, 0.034, -0.004, 1.009, -0.061, -0.061, 0, -0.247, -1.56, -122.366, -8.232, -4.900, -14.602, 23.37, 0.4819, -0.01294, -0.00464, -0.87607,
 14:58:58.711,d3:c7:8d:a5:a9:b5, 2015-01-01 00:03:49.085, 0.034, -0.006, 1.012, -0.061, 0.549, -0.366, -0.247, -1.555, -122.366, -8.232, -4.900, -14.602, 23.37, 0.4819, -0.01294, -0.00464, -0.87607,
 14:58:58.742,d3:c7:8d:a5:a9:b5, 2015-01-01 00:03:49.085, 0.034, -0.006, 1.012, -0.061, 0.549, -0.366, -0.247, -1.549, -122.371, -8.330, -4.900, -14.602, 23.37, 0.4819, -0.01294, -0.00464, -0.87607,
 14:58:58.742,d3:c7:8d:a5:a9:b5, 2015-01-01 00:03:49.085, 0.034, -0.007, 1.012, 0, 2.136, -0.427, -0.247, -1.527, -122.377, -8.330, -4.900, -14.602, 23.37, 0.4819, -0.01294, -0.00464, -0.87607,
 14:58:58.742,d3:c7:8d:a5:a9:b5, 2015-01-01 00:03:49.085, 0.024, -0.007, 1.012, 0, 2.136, -0.427, -0.247, -1.505, -122.382, -8.330, -4.900, -14.602, 23.37, 0.4819, -0.01294, -0.00464, -0.87607,
 14:58:58.742,d3:c7:8d:a5:a9:b5, 2015-01-01 00:03:49.085, 0.024, -0.005, 1.008, 0.183, 2.808, -0.427, -0.247, -1.478, -122.388, -8.330, -4.900, -14.602, 23.37, 0.4819, -0.01294, -0.00464, -0.87607,
 14:58:58.773,d3:c7:8d:a5:a9:b5, 2015-01-01 00:03:49.085, 0.012, -0.005, 1.008, 0.183, 2.808, -0.427, -0.247, -1.45, -122.399, -8.330, -4.900, -14.602, 23.37, 0.4819, -0.01294, -0.00464, -0.87607,
 14:58:58.773,d3:c7:8d:a5:a9:b5, 2015-01-01 00:03:49.085, 0.012, -0.002, 1.004, 0.183, 1.587, -0.061, -0.242, -1.439, -122.399, -8.330, -4.900, -14.602, 23.37, 0.4819, -0.01294, -0.00464, -0.87607,
 14:58:58.773,d3:c7:8d:a5:a9:b5, 2015-01-01 00:03:49.085, 0.015, -0.002, 1.004, 0.183, 1.587, -0.061, -0.242, -1.423, -122.399, -8.330, -4.900, -14.602, 23.37, 0.4819, -0.01294, -0.00464, -0.87607,
 14:58:58.774,d3:c7:8d:a5:a9:b5, 2015-01-01 00:03:49.085, 0.015, -0.004, 1.006, 0, -0.061, 0.305, -0.242, -1.423, -122.393, -8.330, -4.900, -14.602, 23.37, 0.4819, -0.01294, -0.00464, -0.87607,
 14:58:58.833,d3:c7:8d:a5:a9:b5, 2015-01-01 00:03:49.085, 0.02, -0.004, 1.006, 0, -0.061, 0.305, -0.242, -1.423, -122.388, -8.330, -4.900, -14.602, 23.37, 0.48166, -0.0119, -0.00409, -0.87622,
 14:58:58.833,d3:c7:8d:a5:a9:b5, 2015-01-01 00:03:49.085, 0.02, -0.005, 1.007, 0.122, -0.977, 0.549, -0.242, -1.434, -122.382, -8.330, -4.900, -14.602, 23.37, 0.48166, -0.0119, -0.00409, -0.87622,
 14:58:58.833,d3:c7:8d:a5:a9:b5, 2015-01-01 00:03:49.085, 0.024, -0.005, 1.007, 0.122, -0.977, 0.549, -0.242, -1.439, -122.371, -8.330, -4.900, -14.602, 23.37, 0.48166, -0.0119, -0.00409, -0.87622,
 14:58:58.833,d3:c7:8d:a5:a9:b5, 2015-01-01 00:03:49.085, 0.024, -0.004, 1.009, 0.183, -1.404, 0.549, -0.242, -1.456, -122.366, -8.330, -4.900, -14.602, 23.37, 0.48166, -0.0119, -0.00409, -0.87622,
 14:58:58.862,d3:c7:8d:a5:a9:b5, 2015-01-01 00:03:49.445, 0.026, -0.004, 1.009, 0.183, -1.404, 0.549, -0.236, -1.467, -122.36, -8.330, -4.900, -14.602, 23.37, 0.48166, -0.0119, -0.00409, -0.87622,
 14:58:58.862,d3:c7:8d:a5:a9:b5, 2015-01-01 00:03:49.445, 0.026, -0.003, 1.01, 0.244, -1.282, 0.549, -0.236, -1.478, -122.355, -8.330, -4.900, -14.602, 23.37, 0.48166, -0.0119, -0.00409, -0.87622,
 14:58:58.862,d3:c7:8d:a5:a9:b5, 2015-01-01 00:03:49.445, 0.026, -0.003, 1.01, 0.244, -1.282, 0.549, -0.231, -1.489, -122.344, -8.330, -4.900, -14.602, 23.37, 0.48166, -0.0119, -0.00409, -0.87622,
 14:58:58.862,d3:c7:8d:a5:a9:b5, 2015-01-01 00:03:49.445, 0.026, -0.003, 1.009, 0.122, -1.404, 0.488, -0.231, -1.505, -122.338, -8.330, -4.900, -14.602, 23.37, 0.48166, -0.0119, -0.00409, -0.87622,
 14:58:58.890,d3:c7:8d:a5:a9:b5, 2015-01-01 00:03:49.445, 0.03, -0.003, 1.009, 0.122, -1.404, 0.488, -0.231, -1.516, -122.338, -8.330, -4.900, -14.602, 23.37, 0.48166, -0.0119, -0.00409, -0.87622,
 14:58:58.890,d3:c7:8d:a5:a9:b5, 2015-01-01 00:03:49.445, 0.03, -0.004, 1.009, 0.061, -1.038, 0.427, -0.231, -1.527, -122.333, -8.330, -4.900, -14.602, 23.37, 0.48166, -0.0119, -0.00409, -0.87622,
 14:58:58.890,d3:c7:8d:a5:a9:b5, 2015-01-01 00:03:49.445, 0.029, -0.004, 1.009, 0.061, -1.038, 0.427, -0.231, -1.538, -122.327, -8.330, -4.900, -14.602, 23.37, 0.48166, -0.0119, -0.00409, -0.87622,
 14:58:58.890,d3:c7:8d:a5:a9:b5, 2015-01-01 00:03:49.445, 0.029, -0.004, 1.011, 0.122, -0.549, 0.366, -0.231, -1.544, -122.327, -8.330, -4.900, -14.602, 23.37, 0.48166, -0.0119, -0.00409, -0.87622,
 14:58:58.952,d3:c7:8d:a5:a9:b5, 2015-01-01 00:03:49.445, 0.027, -0.004, 1.011, 0.122, -0.549, 0.366, -0.225, -1.549, -122.322, -8.330, -4.900, -14.602, 23.37, 0.48166, -0.0119, -0.00409, -0.87622,
 14:58:58.953,d3:c7:8d:a5:a9:b5, 2015-01-01 00:03:49.445, 0.027, -0.002, 1.008, 0, -0.427, 0.122, -0.231, -1.549, -122.316, -8.330, -4.900, -14.602, 23.37, 0.48166, -0.0119, -0.00409, -0.87622,
 14:58:58.953,d3:c7:8d:a5:a9:b5, 2015-01-01 00:03:49.445, 0.029, -0.002, 1.008, 0, -0.427, 0.122, -0.231, -1.555, -122.316, -8.330, -4.900, -14.602, 23.37, 0.48166, -0.0119, -0.00409, -0.87622,
 14:58:58.953,d3:c7:8d:a5:a9:b5, 2015-01-01 00:03:49.445, 0.029, -0.003, 1.009, 0, -0.671, -0.061, -0.231, -1.56, -122.316, -8.330, -4.900, -14.602, 23.37, 0.48166, -0.0119, -0.00409, -0.87622,
 14:58:58.981,d3:c7:8d:a5:a9:b5, 2015-01-01 00:03:49.445, 0.029, -0.003, 1.009, 0, -0.671, -0.061, -0.225, -1.566, -122.316, -8.330, -4.900, -14.602, 23.37, 0.48166, -0.0119, -0.00409, -0.87622,
 14:58:58.982,d3:c7:8d:a5:a9:b5, 2015-01-01 00:03:49.445, 0.029, -0.003, 1.011, -0.122, -0.61, -0.122, -0.231, -1.571, -122.316, -8.330, -4.900, -14.602, 23.37, 0.48166, -0.0119, -0.00409, -0.87622,
 14:58:58.982,d3:c7:8d:a5:a9:b5, 2015-01-01 00:03:49.445, 0.029, -0.003, 1.011, -0.122, -0.61, -0.122, -0.231, -1.577, -122.316, -8.330, -4.900, -14.602, 23.37, 0.48166, -0.0119, -0.00409, -0.87622,
 14:58:58.982,d3:c7:8d:a5:a9:b5, 2015-01-01 00:03:49.445, 0.029, -0.004, 1.008, -0.183, -0.488, -0.244, -0.231, -1.582, -122.322, -8.330, -4.900, -14.602, 23.37, 0.48166, -0.0119, -0.00409, -0.87622,
 14:58:59.012,d3:c7:8d:a5:a9:b5, 2015-01-01 00:03:49.445, 0.034, -0.004, 1.008, -0.183, -0.488, -0.244, -0.231, -1.588, -122.322, -8.330, -4.900, -14.602, 23.37, 0.48166, -0.0119, -0.00409, -0.87622,
 14:58:59.012,d3:c7:8d:a5:a9:b5, 2015-01-01 00:03:49.445, 0.031, -0.005, 1.011, -0.183, 0, -0.305, -0.236, -1.588, -122.327, -8.330, -4.900, -14.602, 23.37, 0.48166, -0.0119, -0.00409, -0.87622,
 14:58:59.012,d3:c7:8d:a5:a9:b5, 2015-01-01 00:03:49.445, 0.031, -0.005, 1.011, -0.061, 0.854, -0.366, -0.236, -1.582, -122.333, -8.330, -4.900, -14.602, 23.37, 0.48166, -0.0119, -0.00409, -0.87622,
 14:58:59.012,d3:c7:8d:a5:a9:b5, 2015-01-01 00:03:49.445, 0.025, -0.005, 1.011, -0.061, 0.854, -0.366, -0.236, -1.577, -122.333, -8.330, -4.900, -14.602, 23.37, 0.48166, -0.0119, -0.00409, -0.87622,
 14:58:59.071,d3:c7:8d:a5:a9:b5, 2015-01-01 00:03:49.445, 0.025, -0.004, 1.008, -0.061, 0.977, -0.305, -0.236, -1.566, -122.338, -8.330, -4.900, -14.602, 23.37, 0.48166, -0.0119, -0.00409, -0.87622,
 14:58:59.073,d3:c7:8d:a5:a9:b5, 2015-01-01 00:03:49.445, 0.026, -0.004, 1.008, -0.061, 0.977, -0.305, -0.236, -1.56, -122.338, -8.330, -4.900, -14.602, 23.37, 0.48166, -0.0119, -0.00409, -0.87622,
 14:58:59.073,d3:c7:8d:a5:a9:b5, 2015-01-01 00:03:49.445, 0.026, -0.005, 1.008, -0.061, 0.732, -0.183, -0.236, -1.549, -122.338, -8.330, -4.900, -14.602, 23.37, 0.48166, -0.0119, -0.00409, -0.87622,
 14:58:59.073,d3:c7:8d:a5:a9:b5, 2015-01-01 00:03:49.445, 0.024, -0.005, 1.008, -0.061, 0.732, -0.183, -0.236, -1.544, -122.338, -8.330, -4.900, -14.602, 23.37, 0.48166, -0.0119, -0.00409, -0.87622,
 14:58:59.102,d3:c7:8d:a5:a9:b5, 2015-01-01 00:03:49.445, 0.024, -0.004, 1.009, 0, 0.549, 0, -0.236, -1.538, -122.338, -8.330, -4.900, -14.504, 23.37, 0.48166, -0.0119, -0.00409, -0.87622,
 14:58:59.102,d3:c7:8d:a5:a9:b5, 2015-01-01 00:03:49.445, 0.022, -0.004, 1.009, 0, 0.549, 0, -0.236, -1.533, -122.344, -8.330, -4.900, -14.504, 23.37, 0.48166, -0.0119, -0.00409, -0.87622,
 14:58:59.102,d3:c7:8d:a5:a9:b5, 2015-01-01 00:03:49.445, 0.022, -0.003, 1.008, -0.061, 0.061, 0, -0.242, -1.527, -122.344, -8.330, -4.900, -14.504, 23.37, 0.48166, -0.0119, -0.00409, -0.87622,
 14:58:59.102,d3:c7:8d:a5:a9:b5, 2015-01-01 00:03:49.445, 0.03, -0.003, 1.008, -0.061, 0.061, 0, -0.242, -1.527, -122.344, -8.330, -4.900, -14.504, 23.37, 0.48166, -0.0119, -0.00409, -0.87622,
 14:58:59.132,d3:c7:8d:a5:a9:b5, 2015-01-01 00:03:49.445, 0.03, -0.005, 1.009, 0, 0, 0, -0.242, -1.527, -122.344, -8.330, -4.900, -14.504, 23.37, 0.48166, -0.0119, -0.00409, -0.87622,
 14:58:59.132,d3:c7:8d:a5:a9:b5, 2015-01-01 00:03:49.445, 0.029, -0.005, 1.009, 0, 0, 0, -0.242, -1.527, -122.338, -8.330, -4.900, -14.504, 23.37, 0.48166, -0.0119, -0.00409, -0.87622,
 14:58:59.133,d3:c7:8d:a5:a9:b5, 2015-01-01 00:03:49.445, 0.029, -0.004, 1.009, 0.122, 0.427, 0.061, -0.242, -1.527, -122.338, -8.330, -4.900, -14.504, 23.37, 0.48166, -0.0119, -0.00409, -0.87622,
 14:58:59.133,d3:c7:8d:a5:a9:b5, 2015-01-01 00:03:49.445, 0.028, -0.004, 1.009, 0.122, 0.427, 0.061, -0.236, -1.522, -122.338, -8.330, -4.900, -14.504, 23.37, 0.48166, -0.0119, -0.00409, -0.87622,
 14:58:59.192,d3:c7:8d:a5:a9:b5, 2015-01-01 00:03:49.445, 0.028, -0.003, 1.009, 0, 0.61, 0, -0.236, -1.516, -122.338, -8.330, -4.900, -14.504, 23.37, 0.48209, -0.0127, -0.00455, -0.87595,
 14:58:59.192,d3:c7:8d:a5:a9:b5, 2015-01-01 00:03:49.445, 0.028, -0.003, 1.009, 0, 0.61, 0, -0.236, -1.511, -122.333, -8.330, -4.900, -14.504, 23.37, 0.48209, -0.0127, -0.00455, -0.87595,
 14:58:59.193,d3:c7:8d:a5:a9:b5, 2015-01-01 00:03:49.445, 0.028, -0.005, 1.01, 0, 0.977, 0, -0.236, -1.505, -122.333, -8.330, -4.900, -14.504, 23.37, 0.48209, -0.0127, -0.00455, -0.87595,
 14:58:59.193,d3:c7:8d:a5:a9:b5, 2015-01-01 00:03:49.445, 0.022, -0.005, 1.01, 0, 0.977, 0, -0.236, -1.494, -122.333, -8.330, -4.900, -14.504, 23.37, 0.48209, -0.0127, -0.00455, -0.87595,
 14:58:59.223,d3:c7:8d:a5:a9:b5, 2015-01-01 00:03:49.800, 0.022, -0.004, 1.007, 0, 0.793, 0, -0.236, -1.483, -122.333, -8.330, -4.900, -14.504, 23.37, 0.48209, -0.0127, -0.00455, -0.87595,
 14:58:59.223,d3:c7:8d:a5:a9:b5, 2015-01-01 00:03:49.800, 0.023, -0.004, 1.007, 0, 0.793, 0, -0.236, -1.478, -122.327, -8.330, -4.900, -14.504, 23.37, 0.48209, -0.0127, -0.00455, -0.87595,
 14:58:59.223,d3:c7:8d:a5:a9:b5, 2015-01-01 00:03:49.800, 0.023, -0.003, 1.007, 0.061, 0.183, 0, -0.236, -1.472, -122.327, -8.330, -4.900, -14.504, 23.37, 0.48209, -0.0127, -0.00455, -0.87595,
 14:58:59.223,d3:c7:8d:a5:a9:b5, 2015-01-01 00:03:49.800, 0.025, -0.003, 1.007, 0.061, 0.183, 0, -0.236, -1.472, -122.327, -8.330, -4.900, -14.504, 23.37, 0.48209, -0.0127, -0.00455, -0.87595,
 14:58:59.252,d3:c7:8d:a5:a9:b5, 2015-01-01 00:03:49.800, 0.025, -0.002, 1.009, 0, -0.183, 0, -0.236, -1.472, -122.327, -8.330, -4.900, -14.504, 23.37, 0.48209, -0.0127, -0.00455, -0.87595,
 14:58:59.252,d3:c7:8d:a5:a9:b5, 2015-01-01 00:03:49.800, 0.027, -0.002, 1.009, 0, -0.183, 0, -0.236, -1.472, -122.327, -8.330, -4.900, -14.504, 23.37, 0.48209, -0.0127, -0.00455, -0.87595,
 14:58:59.252,d3:c7:8d:a5:a9:b5, 2015-01-01 00:03:49.800, 0.027, -0.002, 1.009, 0, -0.061, 0, -0.236, -1.472, -122.333, -8.330, -4.900, -14.504, 23.37, 0.48209, -0.0127, -0.00455, -0.87595,
 14:58:59.253,d3:c7:8d:a5:a9:b5, 2015-01-01 00:03:49.800, 0.025, -0.002, 1.009, 0, -0.061, 0, -0.236, -1.472, -122.338, -8.330, -4.900, -14.504, 23.37, 0.48209, -0.0127, -0.00455, -0.87595,
 14:58:59.311,d3:c7:8d:a5:a9:b5, 2015-01-01 00:03:49.800, 0.025, -0.005, 1.008, 0, -0.122, 0, -0.236, -1.478, -122.338, -8.330, -4.900, -14.504, 23.37, 0.48209, -0.0127, -0.00455, -0.87595,
 14:58:59.311,d3:c7:8d:a5:a9:b5, 2015-01-01 00:03:49.800, 0.023, -0.005, 1.008, 0, -0.122, 0, -0.236, -1.478, -122.338, -8.330, -4.900, -14.504, 23.37, 0.48209, -0.0127, -0.00455, -0.87595,
 14:58:59.311,d3:c7:8d:a5:a9:b5, 2015-01-01 00:03:49.800, 0.023, -0.004, 1.01, 0, -0.366, 0, -0.236, -1.478, -122.338, -8.330, -4.900, -14.504, 23.37, 0.48209, -0.0127, -0.00455, -0.87595,
 14:58:59.311,d3:c7:8d:a5:a9:b5, 2015-01-01 00:03:49.800, 0.026, -0.004, 1.01, 0, -0.366, 0, -0.236, -1.483, -122.344, -8.330, -4.900, -14.504, 23.37, 0.48209, -0.0127, -0.00455, -0.87595,
 14:58:59.341,d3:c7:8d:a5:a9:b5, 2015-01-01 00:03:49.800, 0.026, -0.003, 1.008, 0, -0.549, 0, -0.236, -1.489, -122.344, -8.330, -4.900, -14.504, 23.37, 0.48209, -0.0127, -0.00455, -0.87595,
 14:58:59.341,d3:c7:8d:a5:a9:b5, 2015-01-01 00:03:49.800, 0.028, -0.003, 1.008, 0, -0.549, 0, -0.236, -1.494, -122.344, -8.330, -4.900, -14.504, 23.37, 0.48209, -0.0127, -0.00455, -0.87595,
 14:58:59.341,d3:c7:8d:a5:a9:b5, 2015-01-01 00:03:49.800, 0.028, -0.003, 1.009, 0, -0.366, 0, -0.236, -1.494, -122.349, -8.330, -4.900, -14.504, 23.37, 0.48209, -0.0127, -0.00455, -0.87595,
 14:58:59.341,d3:c7:8d:a5:a9:b5, 2015-01-01 00:03:49.800, 0.025, -0.003, 1.009, 0, -0.366, 0, -0.236, -1.5, -122.355, -8.330, -4.900, -14.504, 23.37, 0.48209, -0.0127, -0.00455, -0.87595,
 14:58:59.372,d3:c7:8d:a5:a9:b5, 2015-01-01 00:03:49.800, 0.025, -0.004, 1.009, 0, -0.244, 0, -0.236, -1.505, -122.355, -8.330, -4.900, -14.504, 23.37, 0.48209, -0.0127, -0.00455, -0.87595,
 14:58:59.372,d3:c7:8d:a5:a9:b5, 2015-01-01 00:03:49.800, 0.025, -0.004, 1.009, 0, -0.244, 0, -0.236, -1.505, -122.36, -8.330, -4.900, -14.504, 23.37, 0.48209, -0.0127, -0.00455, -0.87595,
 14:58:59.372,d3:c7:8d:a5:a9:b5, 2015-01-01 00:03:49.800, 0.025, -0.005, 1.01, 0, -0.488, 0, -0.236, -1.511, -122.36, -8.330, -4.900, -14.504, 23.37, 0.48209, -0.0127, -0.00455, -0.87595,
 14:58:59.372,d3:c7:8d:a5:a9:b5, 2015-01-01 00:03:49.800, 0.027, -0.005, 1.01, 0, -0.488, 0, -0.236, -1.511, -122.36, -8.330, -4.900, -14.504, 23.37, 0.48209, -0.0127, -0.00455, -0.87595,
 14:58:59.431,d3:c7:8d:a5:a9:b5, 2015-01-01 00:03:49.800, 0.027, -0.004, 1.009, 0, -0.549, 0, -0.236, -1.516, -122.36, -8.330, -4.900, -14.504, 23.37, 0.48209, -0.0127, -0.00455, -0.87595,
 14:58:59.431,d3:c7:8d:a5:a9:b5, 2015-01-01 00:03:49.800, 0.027, -0.004, 1.009, 0, -0.549, 0, -0.236, -1.522, -122.36, -8.330, -4.900, -14.504, 23.37, 0.48209, -0.0127, -0.00455, -0.87595,
 14:58:59.431,d3:c7:8d:a5:a9:b5, 2015-01-01 00:03:49.800, 0.027, -0.002, 1.008, 0, -0.61, 0, -0.236, -1.527, -122.36, -8.330, -4.900, -14.504, 23.37, 0.48209, -0.0127, -0.00455, -0.87595,
 14:58:59.431,d3:c7:8d:a5:a9:b5, 2015-01-01 00:03:49.800, 0.03, -0.002, 1.008, 0, -0.61, 0, -0.236, -1.533, -122.36, -8.330, -4.900, -14.504, 23.37, 0.48209, -0.0127, -0.00455, -0.87595,
 14:58:59.461,d3:c7:8d:a5:a9:b5, 2015-01-01 00:03:49.800, 0.03, -0.005, 1.01, -0.061, -0.183, 0, -0.236, -1.538, -122.36, -8.232, -4.900, -14.700, 23.37, 0.48209, -0.0127, -0.00455, -0.87595,
 14:58:59.461,d3:c7:8d:a5:a9:b5, 2015-01-01 00:03:49.800, 0.028, -0.005, 1.01, -0.061, -0.183, 0, -0.236, -1.538, -122.36, -8.232, -4.900, -14.700, 23.37, 0.48209, -0.0127, -0.00455, -0.87595,
 14:58:59.461,d3:c7:8d:a5:a9:b5, 2015-01-01 00:03:49.800, 0.028, -0.005, 1.01, 0, 0.244, 0, -0.236, -1.538, -122.36, -8.232, -4.900, -14.700, 23.37, 0.48209, -0.0127, -0.00455, -0.87595,
 14:58:59.461,d3:c7:8d:a5:a9:b5, 2015-01-01 00:03:49.800, 0.026, -0.005, 1.01, 0, 0.244, 0, -0.236, -1.538, -122.36, -8.232, -4.900, -14.700, 23.37, 0.48209, -0.0127, -0.00455, -0.87595,
 14:58:59.491,d3:c7:8d:a5:a9:b5, 2015-01-01 00:03:49.800, 0.026, -0.004, 1.01, 0.061, 0.305, 0, -0.236, -1.533, -122.36, -8.232, -4.900, -14.700, 23.37, 0.48209, -0.0127, -0.00455, -0.87595,
 14:58:59.491,d3:c7:8d:a5:a9:b5, 2015-01-01 00:03:49.800, 0.025, -0.004, 1.01, 0.061, 0.305, 0, -0.236, -1.533, -122.36, -8.232, -4.900, -14.700, 23.37, 0.48209, -0.0127, -0.00455, -0.87595,
 14:58:59.491,d3:c7:8d:a5:a9:b5, 2015-01-01 00:03:49.800, 0.025, -0.004, 1.008, 0, 0.122, 0.061, -0.236, -1.527, -122.36, -8.232, -4.900, -14.700, 23.37, 0.48209, -0.0127, -0.00455, -0.87595,
 14:58:59.491,d3:c7:8d:a5:a9:b5, 2015-01-01 00:03:49.800, 0.027, -0.004, 1.008, 0, 0.122, 0.061, -0.236, -1.527, -122.36, -8.232, -4.900, -14.700, 23.37, 0.48209, -0.0127, -0.00455, -0.87595,
 14:58:59.553,d3:c7:8d:a5:a9:b5, 2015-01-01 00:03:49.800, 0.027, -0.004, 1.009, 0.061, 0, 0.122, -0.231, -1.527, -122.36, -8.232, -4.900, -14.700, 23.37, 0.48193, -0.0127, -0.00461, -0.87604,
 14:58:59.553,d3:c7:8d:a5:a9:b5, 2015-01-01 00:03:49.800, 0.028, -0.004, 1.009, 0.061, 0, 0.122, -0.231, -1.527, -122.355, -8.232, -4.900, -14.700, 23.37, 0.48193, -0.0127, -0.00461, -0.87604,
 14:58:59.553,d3:c7:8d:a5:a9:b5, 2015-01-01 00:03:49.800, 0.028, -0.003, 1.009, 0, 0, 0, -0.231, -1.527, -122.355, -8.232, -4.900, -14.700, 23.37, 0.48193, -0.0127, -0.00461, -0.87604,
 14:58:59.553,d3:c7:8d:a5:a9:b5, 2015-01-01 00:03:49.800, 0.028, -0.003, 1.009, 0, 0, 0, -0.231, -1.527, -122.36, -8.232, -4.900, -14.700, 23.37, 0.48193, -0.0127, -0.00461, -0.87604,
 14:58:59.582,d3:c7:8d:a5:a9:b5, 2015-01-01 00:03:50.160, 0.028, -0.003, 1.009, 0, 0.305, 0, -0.231, -1.527, -122.36, -8.232, -4.900, -14.700, 23.37, 0.48193, -0.0127, -0.00461, -0.87604,
 14:58:59.582,d3:c7:8d:a5:a9:b5, 2015-01-01 00:03:50.160, 0.027, -0.003, 1.009, 0, 0.305, 0, -0.231, -1.522, -122.366, -8.232, -4.900, -14.700, 23.37, 0.48193, -0.0127, -0.00461, -0.87604,
 14:58:59.583,d3:c7:8d:a5:a9:b5, 2015-01-01 00:03:50.160, 0.027, -0.003, 1.009, 0, 0.305, 0, -0.231, -1.516, -122.366, -8.232, -4.900, -14.700, 23.37, 0.48193, -0.0127, -0.00461, -0.87604,
 14:58:59.583,d3:c7:8d:a5:a9:b5, 2015-01-01 00:03:50.160, 0.026, -0.003, 1.009, 0, 0.305, 0, -0.231, -1.516, -122.371, -8.232, -4.900, -14.700, 23.37, 0.48193, -0.0127, -0.00461, -0.87604,
 14:58:59.642,d3:c7:8d:a5:a9:b5, 2015-01-01 00:03:50.160, 0.026, -0.004, 1.009, 0, 0.427, 0, -0.231, -1.511, -122.371, -8.232, -4.900, -14.700, 23.37, 0.48193, -0.0127, -0.00461, -0.87604,
 14:58:59.642,d3:c7:8d:a5:a9:b5, 2015-01-01 00:03:50.160, 0.024, -0.004, 1.009, 0, 0.427, 0, -0.231, -1.505, -122.371, -8.232, -4.900, -14.700, 23.37, 0.48193, -0.0127, -0.00461, -0.87604,
 14:58:59.642,d3:c7:8d:a5:a9:b5, 2015-01-01 00:03:50.160, 0.024, -0.002, 1.008, 0, 0.305, 0, -0.231, -1.505, -122.371, -8.232, -4.900, -14.700, 23.37, 0.48193, -0.0127, -0.00461, -0.87604,
 14:58:59.642,d3:c7:8d:a5:a9:b5, 2015-01-01 00:03:50.160, 0.026, -0.002, 1.008, 0, 0.305, 0, -0.231, -1.5, -122.371, -8.232, -4.900, -14.700, 23.37, 0.48193, -0.0127, -0.00461, -0.87604,
 14:58:59.671,d3:c7:8d:a5:a9:b5, 2015-01-01 00:03:50.160, 0.026, -0.003, 1.008, -0.061, 0.183, 0, -0.231, -1.5, -122.371, -8.232, -4.900, -14.700, 23.37, 0.48193, -0.0127, -0.00461, -0.87604,
 14:58:59.671,d3:c7:8d:a5:a9:b5, 2015-01-01 00:03:50.160, 0.025, -0.003, 1.008, -0.061, 0.183, 0, -0.231, -1.5, -122.371, -8.232, -4.900, -14.700, 23.37, 0.48193, -0.0127, -0.00461, -0.87604,
 14:58:59.671,d3:c7:8d:a5:a9:b5, 2015-01-01 00:03:50.160, 0.025, -0.004, 1.01, -0.061, 0.122, 0, -0.231, -1.494, -122.377, -8.232, -4.900, -14.700, 23.37, 0.48193, -0.0127, -0.00461, -0.87604,
 14:58:59.671,d3:c7:8d:a5:a9:b5, 2015-01-01 00:03:50.160, 0.027, -0.004, 1.01, -0.061, 0.122, 0, -0.236, -1.494, -122.377, -8.232, -4.900, -14.700, 23.37, 0.48193, -0.0127, -0.00461, -0.87604,
 14:58:59.701,d3:c7:8d:a5:a9:b5, 2015-01-01 00:03:50.160, 0.027, -0.004, 1.008, -0.122, 0, 0, -0.236, -1.494, -122.377, -8.232, -4.900, -14.700, 23.37, 0.48193, -0.0127, -0.00461, -0.87604,
 14:58:59.701,d3:c7:8d:a5:a9:b5, 2015-01-01 00:03:50.160, 0.028, -0.004, 1.008, -0.122, 0, 0, -0.236, -1.494, -122.382, -8.232, -4.900, -14.700, 23.37, 0.48193, -0.0127, -0.00461, -0.87604,
 14:58:59.701,d3:c7:8d:a5:a9:b5, 2015-01-01 00:03:50.160, 0.028, -0.004, 1.009, 0, 0.305, 0, -0.236, -1.494, -122.388, -8.232, -4.900, -14.700, 23.37, 0.48193, -0.0127, -0.00461, -0.87604,
 14:58:59.702,d3:c7:8d:a5:a9:b5, 2015-01-01 00:03:50.160, 0.023, -0.004, 1.009, 0, 0.305, 0, -0.236, -1.489, -122.388, -8.232, -4.900, -14.700, 23.37, 0.48193, -0.0127, -0.00461, -0.87604,
 14:58:59.762,d3:c7:8d:a5:a9:b5, 2015-01-01 00:03:50.160, 0.023, -0.003, 1.009, -0.061, 0.061, 0, -0.236, -1.489, -122.393, -8.232, -4.900, -14.700, 23.37, 0.48193, -0.0127, -0.00461, -0.87604,
 14:58:59.762,d3:c7:8d:a5:a9:b5, 2015-01-01 00:03:50.160, 0.024, -0.003, 1.009, -0.061, 0.061, 0, -0.236, -1.489, -122.399, -8.232, -4.900, -14.700, 23.37, 0.48193, -0.0127, -0.00461, -0.87604,
 14:58:59.762,d3:c7:8d:a5:a9:b5, 2015-01-01 00:03:50.160, 0.024, -0.005, 1.007, 0, 0, 0, -0.236, -1.489, -122.399, -8.232, -4.900, -14.700, 23.37, 0.48193, -0.0127, -0.00461, -0.87604,
 14:58:59.762,d3:c7:8d:a5:a9:b5, 2015-01-01 00:03:50.160, 0.023, -0.005, 1.007, 0, 0, 0, -0.236, -1.489, -122.399, -8.232, -4.900, -14.700, 23.37, 0.48193, -0.0127, -0.00461, -0.87604,
 14:58:59.790,d3:c7:8d:a5:a9:b5, 2015-01-01 00:03:50.160, 0.023, -0.004, 1.009, 0.061, -0.183, 0, -0.236, -1.489, -122.399, -8.232, -4.900, -14.602, 23.37, 0.48193, -0.0127, -0.00461, -0.87604,
 14:58:59.790,d3:c7:8d:a5:a9:b5, 2015-01-01 00:03:50.160, 0.023, -0.004, 1.009, 0.061, -0.183, 0, -0.236, -1.489, -122.399, -8.232, -4.900, -14.602, 23.37, 0.48193, -0.0127, -0.00461, -0.87604,
 14:58:59.790,d3:c7:8d:a5:a9:b5, 2015-01-01 00:03:50.160, 0.023, -0.003, 1.007, 0, -0.427, 0, -0.236, -1.494, -122.393, -8.232, -4.900, -14.602, 23.37, 0.48193, -0.0127, -0.00461, -0.87604,
 14:58:59.790,d3:c7:8d:a5:a9:b5, 2015-01-01 00:03:50.160, 0.028, -0.003, 1.007, 0, -0.427, 0, -0.236, -1.5, -122.393, -8.232, -4.900, -14.602, 23.37, 0.48193, -0.0127, -0.00461, -0.87604,
 14:58:59.821,d3:c7:8d:a5:a9:b5, 2015-01-01 00:03:50.160, 0.028, -0.003, 1.009, 0, -0.61, 0, -0.236, -1.505, -122.399, -8.232, -4.900, -14.602, 23.37, 0.48193, -0.0127, -0.00461, -0.87604,
 14:58:59.821,d3:c7:8d:a5:a9:b5, 2015-01-01 00:03:50.160, 0.027, -0.003, 1.009, 0, -0.61, 0, -0.236, -1.511, -122.399, -8.232, -4.900, -14.602, 23.37, 0.48193, -0.0127, -0.00461, -0.87604,
 14:58:59.821,d3:c7:8d:a5:a9:b5, 2015-01-01 00:03:50.160, 0.027, -0.004, 1.01, -0.061, -0.549, 0, -0.236, -1.516, -122.399, -8.232, -4.900, -14.602, 23.37, 0.48193, -0.0127, -0.00461, -0.87604,
 14:58:59.821,d3:c7:8d:a5:a9:b5, 2015-01-01 00:03:50.160, 0.027, -0.004, 1.01, -0.061, -0.549, 0, -0.236, -1.522, -122.404, -8.232, -4.900, -14.602, 23.37, 0.48193, -0.0127, -0.00461, -0.87604,
 14:58:59.883,d3:c7:8d:a5:a9:b5, 2015-01-01 00:03:50.160, 0.027, -0.004, 1.009, -0.061, -0.549, 0, -0.236, -1.527, -122.404, -8.232, -4.900, -14.602, 23.37, 0.48163, -0.0126, -0.00455, -0.87622,
 14:58:59.883,d3:c7:8d:a5:a9:b5, 2015-01-01 00:03:50.160, 0.032, -0.004, 1.009, -0.061, -0.549, 0, -0.236, -1.533, -122.41, -8.232, -4.900, -14.602, 23.37, 0.48163, -0.0126, -0.00455, -0.87622,
 14:58:59.883,d3:c7:8d:a5:a9:b5, 2015-01-01 00:03:50.160, 0.032, -0.005, 1.012, 0, -0.183, 0, -0.236, -1.533, -122.415, -8.232, -4.900, -14.602, 23.37, 0.48163, -0.0126, -0.00455, -0.87622,
 14:58:59.883,d3:c7:8d:a5:a9:b5, 2015-01-01 00:03:50.160, 0.028, -0.005, 1.012, 0, -0.183, 0, -0.236, -1.533, -122.415, -8.232, -4.900, -14.602, 23.37, 0.48163, -0.0126, -0.00455, -0.87622,
 14:58:59.911,d3:c7:8d:a5:a9:b5, 2015-01-01 00:03:50.485, 0.028, -0.003, 1.009, 0, 0.244, 0, -0.236, -1.533, -122.421, -8.232, -4.900, -14.602, 23.37, 0.48163, -0.0126, -0.00455, -0.87622,
 14:58:59.911,d3:c7:8d:a5:a9:b5, 2015-01-01 00:03:50.485, 0.026, -0.003, 1.009, 0, 0.244, 0, -0.236, -1.533, -122.426, -8.232, -4.900, -14.602, 23.37, 0.48163, -0.0126, -0.00455, -0.87622,
 14:58:59.911,d3:c7:8d:a5:a9:b5, 2015-01-01 00:03:50.485, 0.025, -0.004, 1.009, 0, 0.244, 0, -0.236, -1.527, -122.432, -8.232, -4.900, -14.602, 23.37, 0.48163, -0.0126, -0.00455, -0.87622,
 14:58:59.912,d3:c7:8d:a5:a9:b5, 2015-01-01 00:03:50.485, 0.025, -0.004, 1.009, 0, 0.122, 0, -0.236, -1.527, -122.437, -8.232, -4.900, -14.602, 23.37, 0.48163, -0.0126, -0.00455, -0.87622,
 14:58:59.942,d3:c7:8d:a5:a9:b5, 2015-01-01 00:03:50.485, 0.026, -0.004, 1.009, 0, 0.122, 0, -0.236, -1.527, -122.443, -8.232, -4.900, -14.602, 23.37, 0.48163, -0.0126, -0.00455, -0.87622,
 14:58:59.942,d3:c7:8d:a5:a9:b5, 2015-01-01 00:03:50.485, 0.026, -0.004, 1.009, 0, 0.122, 0, -0.236, -1.522, -122.443, -8.232, -4.900, -14.602, 23.37, 0.48163, -0.0126, -0.00455, -0.87622,
 14:58:59.942,d3:c7:8d:a5:a9:b5, 2015-01-01 00:03:50.485, 0.026, -0.004, 1.009, 0, 0.122, 0, -0.236, -1.522, -122.448, -8.232, -4.900, -14.602, 23.37, 0.48163, -0.0126, -0.00455, -0.87622,
 14:58:59.942,d3:c7:8d:a5:a9:b5, 2015-01-01 00:03:50.485, 0.026, -0.003, 1.01, 0, 0.061, 0, -0.236, -1.522, -122.454, -8.232, -4.900, -14.602, 23.37, 0.48163, -0.0126, -0.00455, -0.87622,
 14:59:00.001,d3:c7:8d:a5:a9:b5, 2015-01-01 00:03:50.485, 0.025, -0.003, 1.01, 0, 0.061, 0, -0.236, -1.522, -122.459, -8.232, -4.900, -14.602, 23.37, 0.48163, -0.0126, -0.00455, -0.87622,
 14:59:00.001,d3:c7:8d:a5:a9:b5, 2015-01-01 00:03:50.485, 0.025, -0.003, 1.008, 0, 0, 0, -0.236, -1.522, -122.465, -8.232, -4.900, -14.602, 23.37, 0.48163, -0.0126, -0.00455, -0.87622,
 14:59:00.001,d3:c7:8d:a5:a9:b5, 2015-01-01 00:03:50.485, 0.027, -0.003, 1.008, 0, 0, 0, -0.236, -1.522, -122.465, -8.232, -4.900, -14.602, 23.37, 0.48163, -0.0126, -0.00455, -0.87622,
 14:59:00.002,d3:c7:8d:a5:a9:b5, 2015-01-01 00:03:50.485, 0.027, -0.004, 1.01, 0, 0, 0, -0.236, -1.522, -122.47, -8.232, -4.900, -14.602, 23.37, 0.48163, -0.0126, -0.00455, -0.87622,
 14:59:00.032,d3:c7:8d:a5:a9:b5, 2015-01-01 00:03:50.485, 0.026, -0.004, 1.01, 0, 0, 0, -0.236, -1.522, -122.476, -8.232, -4.900, -14.602, 23.37, 0.48163, -0.0126, -0.00455, -0.87622,
 14:59:00.032,d3:c7:8d:a5:a9:b5, 2015-01-01 00:03:50.485, 0.026, -0.003, 1.008, 0, 0.183, 0, -0.236, -1.522, -122.481, -8.232, -4.900, -14.602, 23.37, 0.48163, -0.0126, -0.00455, -0.87622,
 14:59:00.033,d3:c7:8d:a5:a9:b5, 2015-01-01 00:03:50.485, 0.027, -0.003, 1.008, 0, 0.183, 0, -0.236, -1.516, -122.481, -8.232, -4.900, -14.602, 23.37, 0.48163, -0.0126, -0.00455, -0.87622,
 14:59:00.033,d3:c7:8d:a5:a9:b5, 2015-01-01 00:03:50.485, 0.027, -0.004, 1.009, -0.061, 0.061, 0, -0.236, -1.516, -122.487, -8.232, -4.900, -14.602, 23.37, 0.48163, -0.0126, -0.00455, -0.87622,
 14:59:00.062,d3:c7:8d:a5:a9:b5, 2015-01-01 00:03:50.485, 0.026, -0.004, 1.009, -0.061, 0.061, 0, -0.236, -1.516, -122.492, -8.232, -4.900, -14.602, 23.37, 0.48163, -0.0126, -0.00455, -0.87622,
 14:59:00.062,d3:c7:8d:a5:a9:b5, 2015-01-01 00:03:50.485, 0.026, -0.002, 1.008, 0, 0.122, 0, -0.236, -1.516, -122.498, -8.232, -4.900, -14.602, 23.37, 0.48163, -0.0126, -0.00455, -0.87622,
 14:59:00.062,d3:c7:8d:a5:a9:b5, 2015-01-01 00:03:50.485, 0.028, -0.002, 1.008, 0, 0.122, 0, -0.236, -1.511, -122.498, -8.232, -4.900, -14.602, 23.37, 0.48163, -0.0126, -0.00455, -0.87622,
 14:59:00.062,d3:c7:8d:a5:a9:b5, 2015-01-01 00:03:50.485, 0.028, -0.004, 1.008, 0, 0.244, 0, -0.236, -1.511, -122.503, -8.232, -4.900, -14.602, 23.37, 0.48163, -0.0126, -0.00455, -0.87622,
 14:59:00.122,d3:c7:8d:a5:a9:b5, 2015-01-01 00:03:50.485, 0.025, -0.004, 1.008, 0, 0.244, 0, -0.236, -1.511, -122.509, -8.232, -4.900, -14.602, 23.37, 0.48163, -0.0126, -0.00455, -0.87622,
 14:59:00.122,d3:c7:8d:a5:a9:b5, 2015-01-01 00:03:50.485, 0.025, -0.004, 1.01, 0, 0.366, 0, -0.236, -1.505, -122.514, -8.232, -4.900, -14.602, 23.37, 0.48163, -0.0126, -0.00455, -0.87622,
 14:59:00.122,d3:c7:8d:a5:a9:b5, 2015-01-01 00:03:50.485, 0.023, -0.004, 1.01, 0, 0.366, 0, -0.236, -1.505, -122.514, -8.232, -4.900, -14.602, 23.37, 0.48163, -0.0126, -0.00455, -0.87622,
 14:59:00.122,d3:c7:8d:a5:a9:b5, 2015-01-01 00:03:50.485, 0.023, -0.004, 1.009, 0, 0, 0, -0.236, -1.5, -122.52, -8.232, -4.900, -14.602, 23.37, 0.48163, -0.0126, -0.00455, -0.87622,
 14:59:00.150,d3:c7:8d:a5:a9:b5, 2015-01-01 00:03:50.485, 0.025, -0.004, 1.009, 0, 0, 0, -0.236, -1.5, -122.525, -8.232, -4.998, -14.504, 23.37, 0.48163, -0.0126, -0.00455, -0.87622,
 14:59:00.150,d3:c7:8d:a5:a9:b5, 2015-01-01 00:03:50.485, 0.025, -0.004, 1.008, 0, -0.427, 0, -0.236, -1.505, -122.531, -8.232, -4.998, -14.504, 23.37, 0.48163, -0.0126, -0.00455, -0.87622,
 14:59:00.150,d3:c7:8d:a5:a9:b5, 2015-01-01 00:03:50.485, 0.03, -0.004, 1.008, 0, -0.427, 0, -0.236, -1.505, -122.531, -8.232, -4.998, -14.504, 23.37, 0.48163, -0.0126, -0.00455, -0.87622,
 14:59:00.150,d3:c7:8d:a5:a9:b5, 2015-01-01 00:03:50.485, 0.03, -0.004, 1.011, 0.061, -0.122, 0, -0.236, -1.511, -122.536, -8.232, -4.998, -14.504, 23.37, 0.48163, -0.0126, -0.00455, -0.87622,
 14:59:00.183,d3:c7:8d:a5:a9:b5, 2015-01-01 00:03:50.485, 0.028, -0.004, 1.011, 0.061, -0.122, 0, -0.236, -1.511, -122.542, -8.232, -4.998, -14.504, 23.37, 0.48163, -0.0126, -0.00455, -0.87622,
 14:59:00.183,d3:c7:8d:a5:a9:b5, 2015-01-01 00:03:50.485, 0.028, -0.004, 1.009, 0.061, 0.427, 0, -0.236, -1.511, -122.542, -8.232, -4.998, -14.504, 23.37, 0.48163, -0.0126, -0.00455, -0.87622,
 14:59:00.183,d3:c7:8d:a5:a9:b5, 2015-01-01 00:03:50.485, 0.025, -0.004, 1.009, 0.061, 0.427, 0, -0.236, -1.505, -122.547, -8.232, -4.998, -14.504, 23.37, 0.48163, -0.0126, -0.00455, -0.87622,
 14:59:00.183,d3:c7:8d:a5:a9:b5, 2015-01-01 00:03:50.485, 0.025, -0.003, 1.009, 0.061, 0.427, 0, -0.231, -1.5, -122.552, -8.232, -4.998, -14.504, 23.37, 0.48163, -0.0126, -0.00455, -0.87622,
 14:59:00.243,d3:c7:8d:a5:a9:b5, 2015-01-01 00:03:50.485, 0.025, -0.003, 1.009, 0.061, 0.427, 0, -0.231, -1.494, -122.558, -8.232, -4.998, -14.504, 23.37, 0.4805, -0.01248, -0.00449, -0.87683,
 14:59:00.243,d3:c7:8d:a5:a9:b5, 2015-01-01 00:03:50.485, 0.025, -0.004, 1.009, 0, 0.183, 0, -0.231, -1.494, -122.558, -8.232, -4.998, -14.504, 23.37, 0.4805, -0.01248, -0.00449, -0.87683,
 14:59:00.243,d3:c7:8d:a5:a9:b5, 2015-01-01 00:03:50.485, 0.025, -0.004, 1.009, 0, 0.183, 0, -0.231, -1.494, -122.563, -8.232, -4.998, -14.504, 23.37, 0.4805, -0.01248, -0.00449, -0.87683,
 14:59:00.243,d3:c7:8d:a5:a9:b5, 2015-01-01 00:03:50.485, 0.025, -0.003, 1.009, 0, 0, 0, -0.231, -1.489, -122.569, -8.232, -4.998, -14.504, 23.37, 0.4805, -0.01248, -0.00449, -0.87683,
 14:59:00.272,d3:c7:8d:a5:a9:b5, 2015-01-01 00:03:50.845, 0.027, -0.003, 1.009, 0, 0, 0, -0.231, -1.489, -122.569, -8.232, -4.998, -14.504, 23.37, 0.4805, -0.01248, -0.00449, -0.87683,
 14:59:00.272,d3:c7:8d:a5:a9:b5, 2015-01-01 00:03:50.845, 0.027, -0.004, 1.008, 0, 0.183, 0, -0.231, -1.489, -122.574, -8.232, -4.998, -14.504, 23.37, 0.4805, -0.01248, -0.00449, -0.87683,
 14:59:00.272,d3:c7:8d:a5:a9:b5, 2015-01-01 00:03:50.845, 0.026, -0.004, 1.008, 0, 0.183, 0, -0.231, -1.489, -122.58, -8.232, -4.998, -14.504, 23.37, 0.4805, -0.01248, -0.00449, -0.87683,
 14:59:00.272,d3:c7:8d:a5:a9:b5, 2015-01-01 00:03:50.845, 0.026, -0.004, 1.009, 0, 0.488, 0, -0.231, -1.483, -122.58, -8.232, -4.998, -14.504, 23.37, 0.4805, -0.01248, -0.00449, -0.87683,
 14:59:00.301,d3:c7:8d:a5:a9:b5, 2015-01-01 00:03:50.845, 0.022, -0.004, 1.009, 0, 0.488, 0, -0.231, -1.478, -122.585, -8.232, -4.998, -14.504, 23.37, 0.4805, -0.01248, -0.00449, -0.87683,
 14:59:00.301,d3:c7:8d:a5:a9:b5, 2015-01-01 00:03:50.845, 0.022, -0.004, 1.009, 0.061, 0.549, 0, -0.231, -1.472, -122.591, -8.232, -4.998, -14.504, 23.37, 0.4805, -0.01248, -0.00449, -0.87683,
 14:59:00.301,d3:c7:8d:a5:a9:b5, 2015-01-01 00:03:50.845, 0.021, -0.004, 1.009, 0.061, 0.549, 0, -0.231, -1.467, -122.591, -8.232, -4.998, -14.504, 23.37, 0.4805, -0.01248, -0.00449, -0.87683,
 14:59:00.301,d3:c7:8d:a5:a9:b5, 2015-01-01 00:03:50.845, 0.021, -0.003, 1.007, 0, 0, 0, -0.231, -1.467, -122.596, -8.232, -4.998, -14.504, 23.37, 0.4805, -0.01248, -0.00449, -0.87683,
 14:59:00.361,d3:c7:8d:a5:a9:b5, 2015-01-01 00:03:50.845, 0.026, -0.003, 1.007, 0, 0, 0, -0.231, -1.467, -122.596, -8.232, -4.998, -14.504, 23.37, 0.4805, -0.01248, -0.00449, -0.87683,
 14:59:00.361,d3:c7:8d:a5:a9:b5, 2015-01-01 00:03:50.845, 0.026, -0.003, 1.009, 0, -0.366, 0, -0.231, -1.467, -122.602, -8.232, -4.998, -14.504, 23.37, 0.4805, -0.01248, -0.00449, -0.87683,
 14:59:00.361,d3:c7:8d:a5:a9:b5, 2015-01-01 00:03:50.845, 0.027, -0.003, 1.009, 0, -0.366, 0, -0.231, -1.472, -122.607, -8.232, -4.998, -14.504, 23.37, 0.4805, -0.01248, -0.00449, -0.87683,
 14:59:00.361,d3:c7:8d:a5:a9:b5, 2015-01-01 00:03:50.845, 0.027, -0.003, 1.009, 0.061, -0.183, 0, -0.231, -1.472, -122.607, -8.232, -4.998, -14.504, 23.37, 0.4805, -0.01248, -0.00449, -0.87683,
 14:59:00.391,d3:c7:8d:a5:a9:b5, 2015-01-01 00:03:50.845, 0.03, -0.003, 1.009, 0.061, -0.183, 0, -0.231, -1.478, -122.613, -8.232, -4.998, -14.504, 23.37, 0.4805, -0.01248, -0.00449, -0.87683,
 14:59:00.391,d3:c7:8d:a5:a9:b5, 2015-01-01 00:03:50.845, 0.03, -0.004, 1.008, -0.061, 0, 0, -0.231, -1.478, -122.618, -8.232, -4.998, -14.504, 23.37, 0.4805, -0.01248, -0.00449, -0.87683,
 14:59:00.391,d3:c7:8d:a5:a9:b5, 2015-01-01 00:03:50.845, 0.025, -0.004, 1.008, -0.061, 0, 0, -0.231, -1.478, -122.618, -8.232, -4.998, -14.504, 23.37, 0.4805, -0.01248, -0.00449, -0.87683,
 14:59:00.391,d3:c7:8d:a5:a9:b5, 2015-01-01 00:03:50.845, 0.025, -0.003, 1.009, 0.061, 0.122, 0, -0.231, -1.472, -122.624, -8.232, -4.998, -14.504, 23.37, 0.4805, -0.01248, -0.00449, -0.87683,
 14:59:00.421,d3:c7:8d:a5:a9:b5, 2015-01-01 00:03:50.845, 0.022, -0.003, 1.009, 0.061, 0.122, 0, -0.231, -1.472, -122.624, -8.232, -4.998, -14.504, 23.37, 0.4805, -0.01248, -0.00449, -0.87683,
 14:59:00.422,d3:c7:8d:a5:a9:b5, 2015-01-01 00:03:50.845, 0.022, -0.003, 1.007, 0, -0.122, 0, -0.231, -1.472, -122.629, -8.232, -4.998, -14.504, 23.37, 0.4805, -0.01248, -0.00449, -0.87683,
 14:59:00.422,d3:c7:8d:a5:a9:b5, 2015-01-01 00:03:50.845, 0.027, -0.003, 1.007, 0, -0.122, 0, -0.231, -1.478, -122.635, -8.232, -4.998, -14.504, 23.37, 0.4805, -0.01248, -0.00449, -0.87683,
 14:59:00.422,d3:c7:8d:a5:a9:b5, 2015-01-01 00:03:50.845, 0.027, -0.003, 1.009, 0, 0, 0, -0.231, -1.478, -122.635, -8.232, -4.998, -14.504, 23.37, 0.4805, -0.01248, -0.00449, -0.87683,
 14:59:00.482,d3:c7:8d:a5:a9:b5, 2015-01-01 00:03:50.845, 0.026, -0.003, 1.009, 0, 0, 0, -0.225, -1.478, -122.64, -8.232, -4.998, -14.504, 23.37, 0.4805, -0.01248, -0.00449, -0.87683,
 14:59:00.482,d3:c7:8d:a5:a9:b5, 2015-01-01 00:03:50.845, 0.026, -0.004, 1.008, 0, 0.244, 0, -0.225, -1.472, -122.64, -8.232, -4.998, -14.504, 23.37, 0.4805, -0.01248, -0.00449, -0.87683,
 14:59:00.482,d3:c7:8d:a5:a9:b5, 2015-01-01 00:03:50.845, 0.023, -0.004, 1.008, 0, 0.244, 0, -0.225, -1.472, -122.646, -8.232, -4.998, -14.504, 23.37, 0.4805, -0.01248, -0.00449, -0.87683,
 14:59:00.482,d3:c7:8d:a5:a9:b5, 2015-01-01 00:03:50.845, 0.023, -0.003, 1.009, 0, 0.366, 0, -0.225, -1.467, -122.651, -8.232, -4.998, -14.504, 23.37, 0.4805, -0.01248, -0.00449, -0.87683,
 14:59:00.512,d3:c7:8d:a5:a9:b5, 2015-01-01 00:03:50.845, 0.021, -0.003, 1.009, 0, 0.366, 0, -0.225, -1.461, -122.651, -8.232, -4.998, -14.602, 23.37, 0.4805, -0.01248, -0.00449, -0.87683,
 14:59:00.512,d3:c7:8d:a5:a9:b5, 2015-01-01 00:03:50.845, 0.021, -0.003, 1.007, 0, -0.061, 0, -0.225, -1.461, -122.657, -8.232, -4.998, -14.602, 23.37, 0.4805, -0.01248, -0.00449, -0.87683,
 14:59:00.512,d3:c7:8d:a5:a9:b5, 2015-01-01 00:03:50.845, 0.026, -0.003, 1.007, 0, -0.061, 0, -0.225, -1.461, -122.657, -8.232, -4.998, -14.602, 23.37, 0.4805, -0.01248, -0.00449, -0.87683,
 14:59:00.513,d3:c7:8d:a5:a9:b5, 2015-01-01 00:03:50.845, 0.026, -0.003, 1.009, 0, -0.671, 0, -0.225, -1.472, -122.662, -8.232, -4.998, -14.602, 23.37, 0.4805, -0.01248, -0.00449, -0.87683,
 14:59:00.542,d3:c7:8d:a5:a9:b5, 2015-01-01 00:03:50.845, 0.032, -0.003, 1.009, 0, -0.671, 0, -0.225, -1.478, -122.662, -8.232, -4.998, -14.602, 23.37, 0.4805, -0.01248, -0.00449, -0.87683,
 14:59:00.542,d3:c7:8d:a5:a9:b5, 2015-01-01 00:03:50.845, 0.032, -0.003, 1.011, 0, -0.183, 0, -0.225, -1.478, -122.668, -8.232, -4.998, -14.602, 23.37, 0.4805, -0.01248, -0.00449, -0.87683,
 14:59:00.542,d3:c7:8d:a5:a9:b5, 2015-01-01 00:03:50.845, 0.03, -0.003, 1.011, 0, -0.183, 0, -0.225, -1.478, -122.673, -8.232, -4.998, -14.602, 23.37, 0.4805, -0.01248, -0.00449, -0.87683,
 14:59:00.542,d3:c7:8d:a5:a9:b5, 2015-01-01 00:03:50.845, 0.03, -0.003, 1.01, 0.061, 0.366, 0, -0.225, -1.478, -122.673, -8.232, -4.998, -14.602, 23.37, 0.4805, -0.01248, -0.00449, -0.87683,
 14:59:00.602,d3:c7:8d:a5:a9:b5, 2015-01-01 00:03:50.845, 0.025, -0.003, 1.01, 0.061, 0.366, 0, -0.225, -1.472, -122.679, -8.232, -4.998, -14.602, 23.37, 0.47955, -0.0123, -0.00443, -0.87735,
 14:59:00.602,d3:c7:8d:a5:a9:b5, 2015-01-01 00:03:50.845, 0.025, -0.003, 1.008, 0, 0.427, 0, -0.225, -1.467, -122.679, -8.232, -4.998, -14.602, 23.37, 0.47955, -0.0123, -0.00443, -0.87735,
 14:59:00.602,d3:c7:8d:a5:a9:b5, 2015-01-01 00:03:50.845, 0.024, -0.003, 1.008, 0, 0.427, 0, -0.225, -1.467, -122.684, -8.232, -4.998, -14.602, 23.37, 0.47955, -0.0123, -0.00443, -0.87735,
 14:59:00.602,d3:c7:8d:a5:a9:b5, 2015-01-01 00:03:50.845, 0.024, -0.002, 1.008, 0, 0.305, 0, -0.225, -1.461, -122.684, -8.232, -4.998, -14.602, 23.37, 0.47955, -0.0123, -0.00443, -0.87735,
 14:59:00.631,d3:c7:8d:a5:a9:b5, 2015-01-01 00:03:51.200, 0.024, -0.002, 1.008, 0, 0.305, 0, -0.225, -1.461, -122.69, -8.232, -4.998, -14.602, 23.37, 0.47955, -0.0123, -0.00443, -0.87735,
 14:59:00.631,d3:c7:8d:a5:a9:b5, 2015-01-01 00:03:51.200, 0.024, -0.003, 1.008, -0.061, 0.244, 0, -0.225, -1.456, -122.69, -8.232, -4.998, -14.602, 23.37, 0.47955, -0.0123, -0.00443, -0.87735,
 14:59:00.631,d3:c7:8d:a5:a9:b5, 2015-01-01 00:03:51.200, 0.025, -0.003, 1.008, -0.061, 0.244, 0, -0.225, -1.456, -122.695, -8.232, -4.998, -14.602, 23.37, 0.47955, -0.0123, -0.00443, -0.87735,
 14:59:00.631,d3:c7:8d:a5:a9:b5, 2015-01-01 00:03:51.200, 0.025, -0.004, 1.008, 0, 0.366, 0, -0.225, -1.45, -122.701, -8.232, -4.998, -14.602, 23.37, 0.47955, -0.0123, -0.00443, -0.87735,
 14:59:00.661,d3:c7:8d:a5:a9:b5, 2015-01-01 00:03:51.200, 0.022, -0.004, 1.008, 0, 0.366, 0, -0.225, -1.445, -122.701, -8.232, -4.998, -14.602, 23.37, 0.47955, -0.0123, -0.00443, -0.87735,
 14:59:00.661,d3:c7:8d:a5:a9:b5, 2015-01-01 00:03:51.200, 0.022, -0.003, 1.007, 0, 0.305, 0, -0.225, -1.445, -122.706, -8.232, -4.998, -14.602, 23.37, 0.47955, -0.0123, -0.00443, -0.87735,
 14:59:00.662,d3:c7:8d:a5:a9:b5, 2015-01-01 00:03:51.200, 0.023, -0.003, 1.007, 0, 0.305, 0, -0.225, -1.439, -122.706, -8.232, -4.998, -14.602, 23.37, 0.47955, -0.0123, -0.00443, -0.87735,
 14:59:00.662,d3:c7:8d:a5:a9:b5, 2015-01-01 00:03:51.200, 0.023, -0.003, 1.008, -0.061, -0.183, 0, -0.225, -1.445, -122.712, -8.232, -4.998, -14.602, 23.37, 0.47955, -0.0123, -0.00443, -0.87735,
 14:59:00.722,d3:c7:8d:a5:a9:b5, 2015-01-01 00:03:51.200, 0.025, -0.003, 1.008, -0.061, -0.183, 0, -0.225, -1.445, -122.712, -8.232, -4.998, -14.602, 23.37, 0.47955, -0.0123, -0.00443, -0.87735,
 14:59:00.722,d3:c7:8d:a5:a9:b5, 2015-01-01 00:03:51.200, 0.025, -0.004, 1.01, 0, -0.549, 0, -0.225, -1.45, -122.717, -8.232, -4.998, -14.602, 23.37, 0.47955, -0.0123, -0.00443, -0.87735,
 14:59:00.722,d3:c7:8d:a5:a9:b5, 2015-01-01 00:03:51.200, 0.028, -0.004, 1.01, 0, -0.549, 0, -0.225, -1.456, -122.717, -8.232, -4.998, -14.602, 23.37, 0.47955, -0.0123, -0.00443, -0.87735,
 14:59:00.722,d3:c7:8d:a5:a9:b5, 2015-01-01 00:03:51.200, 0.028, -0.003, 1.008, 0, -0.488, 0, -0.225, -1.461, -122.723, -8.232, -4.998, -14.602, 23.37, 0.47955, -0.0123, -0.00443, -0.87735,
 14:59:00.750,d3:c7:8d:a5:a9:b5, 2015-01-01 00:03:51.200, 0.029, -0.003, 1.008, 0, -0.488, 0, -0.225, -1.467, -122.723, -8.232, -4.998, -14.602, 23.37, 0.47955, -0.0123, -0.00443, -0.87735,
 14:59:00.750,d3:c7:8d:a5:a9:b5, 2015-01-01 00:03:51.200, 0.029, -0.004, 1.01, 0, -0.061, 0, -0.225, -1.467, -122.728, -8.232, -4.998, -14.602, 23.37, 0.47955, -0.0123, -0.00443, -0.87735,
 14:59:00.752,d3:c7:8d:a5:a9:b5, 2015-01-01 00:03:51.200, 0.026, -0.004, 1.01, 0, -0.061, 0, -0.225, -1.467, -122.728, -8.232, -4.998, -14.602, 23.37, 0.47955, -0.0123, -0.00443, -0.87735,
 14:59:00.752,d3:c7:8d:a5:a9:b5, 2015-01-01 00:03:51.200, 0.026, -0.003, 1.009, 0, 0.427, 0, -0.225, -1.461, -122.734, -8.232, -4.998, -14.602, 23.37, 0.47955, -0.0123, -0.00443, -0.87735,
 14:59:00.783,d3:c7:8d:a5:a9:b5, 2015-01-01 00:03:51.200, 0.023, -0.003, 1.009, 0, 0.427, 0, -0.225, -1.456, -122.734, -8.232, -4.998, -14.602, 23.37, 0.47955, -0.0123, -0.00443, -0.87735,
 14:59:00.783,d3:c7:8d:a5:a9:b5, 2015-01-01 00:03:51.200, 0.023, -0.003, 1.007, 0.061, 0.183, 0, -0.22, -1.456, -122.739, -8.232, -4.998, -14.602, 23.37, 0.47955, -0.0123, -0.00443, -0.87735,
 14:59:00.783,d3:c7:8d:a5:a9:b5, 2015-01-01 00:03:51.200, 0.024, -0.003, 1.007, 0.061, 0.183, 0, -0.22, -1.456, -122.739, -8.232, -4.998, -14.602, 23.37, 0.47955, -0.0123, -0.00443, -0.87735,
 14:59:00.783,d3:c7:8d:a5:a9:b5, 2015-01-01 00:03:51.200, 0.024, -0.003, 1.009, 0, 0, 0, -0.22, -1.456, -122.745, -8.232, -4.998, -14.602, 23.37, 0.47955, -0.0123, -0.00443, -0.87735,
 14:59:00.841,d3:c7:8d:a5:a9:b5, 2015-01-01 00:03:51.200, 0.025, -0.003, 1.009, 0, 0, 0, -0.22, -1.456, -122.745, -8.232, -4.998, -14.602, 23.37, 0.47955, -0.0123, -0.00443, -0.87735,
 14:59:00.841,d3:c7:8d:a5:a9:b5, 2015-01-01 00:03:51.200, 0.029, -0.002, 1.007, 0, 0, 0, -0.22, -1.456, -122.75, -8.232, -4.998, -14.602, 23.37, 0.47955, -0.0123, -0.00443, -0.87735,
 14:59:00.841,d3:c7:8d:a5:a9:b5, 2015-01-01 00:03:51.200, 0.029, -0.003, 1.009, 0, 0.305, 0, -0.22, -1.45, -122.75, -8.232, -4.998, -14.602, 23.37, 0.47955, -0.0123, -0.00443, -0.87735,
 14:59:00.841,d3:c7:8d:a5:a9:b5, 2015-01-01 00:03:51.200, 0.025, -0.003, 1.009, 0, 0.305, 0, -0.22, -1.45, -122.756, -8.232, -4.998, -14.602, 23.37, 0.47955, -0.0123, -0.00443, -0.87735,
 14:59:00.870,d3:c7:8d:a5:a9:b5, 2015-01-01 00:03:51.200, 0.025, -0.003, 1.01, 0, 0.732, 0, -0.22, -1.445, -122.756, -8.232, -4.998, -14.602, 23.37, 0.47955, -0.0123, -0.00443, -0.87735,
 14:59:00.870,d3:c7:8d:a5:a9:b5, 2015-01-01 00:03:51.200, 0.021, -0.003, 1.01, 0, 0.732, 0, -0.22, -1.439, -122.756, -8.232, -4.998, -14.602, 23.37, 0.47955, -0.0123, -0.00443, -0.87735,
 14:59:00.870,d3:c7:8d:a5:a9:b5, 2015-01-01 00:03:51.200, 0.021, -0.004, 1.008, 0, 0.122, 0, -0.22, -1.434, -122.761, -8.232, -4.998, -14.602, 23.37, 0.47955, -0.0123, -0.00443, -0.87735,
 14:59:00.870,d3:c7:8d:a5:a9:b5, 2015-01-01 00:03:51.200, 0.023, -0.004, 1.008, 0, 0.122, 0, -0.22, -1.434, -122.761, -8.232, -4.998, -14.602, 23.37, 0.47955, -0.0123, -0.00443, -0.87735,
 14:59:00.902,d3:c7:8d:a5:a9:b5, 2015-01-01 00:03:51.200, 0.023, -0.003, 1.007, 0, -0.244, 0, -0.22, -1.434, -122.767, -8.232, -4.998, -14.602, 23.37, 0.47955, -0.0123, -0.00443, -0.87735,
 14:59:00.902,d3:c7:8d:a5:a9:b5, 2015-01-01 00:03:51.200, 0.027, -0.003, 1.007, 0, -0.244, 0, -0.22, -1.434, -122.767, -8.232, -4.998, -14.602, 23.37, 0.47955, -0.0123, -0.00443, -0.87735,
 14:59:00.902,d3:c7:8d:a5:a9:b5, 2015-01-01 00:03:51.200, 0.027, -0.002, 1.008, 0, -0.244, 0, -0.22, -1.439, -122.772, -8.232, -4.998, -14.602, 23.37, 0.47955, -0.0123, -0.00443, -0.87735,
 14:59:00.902,d3:c7:8d:a5:a9:b5, 2015-01-01 00:03:51.200, 0.026, -0.002, 1.008, 0, -0.244, 0, -0.22, -1.439, -122.772, -8.232, -4.998, -14.602, 23.37, 0.47955, -0.0123, -0.00443, -0.87735,
 14:59:00.962,d3:c7:8d:a5:a9:b5, 2015-01-01 00:03:51.200, 0.026, -0.003, 1.009, 0, 0.122, 0, -0.22, -1.439, -122.778, -8.232, -4.998, -14.602, 23.37, 0.47879, -0.01193, -0.0043, -0.87778,
 14:59:00.962,d3:c7:8d:a5:a9:b5, 2015-01-01 00:03:51.200, 0.021, -0.003, 1.009, 0, 0.122, 0, -0.22, -1.439, -122.778, -8.232, -4.998, -14.602, 23.37, 0.47879, -0.01193, -0.0043, -0.87778,
 14:59:00.962,d3:c7:8d:a5:a9:b5, 2015-01-01 00:03:51.200, 0.021, -0.003, 1.008, 0, 0, 0, -0.22, -1.439, -122.783, -8.232, -4.998, -14.602, 23.37, 0.47879, -0.01193, -0.0043, -0.87778,
 14:59:00.962,d3:c7:8d:a5:a9:b5, 2015-01-01 00:03:51.200, 0.023, -0.003, 1.008, 0, 0, 0, -0.22, -1.439, -122.783, -8.232, -4.998, -14.602, 23.37, 0.47879, -0.01193, -0.0043, -0.87778,
 14:59:00.991,d3:c7:8d:a5:a9:b5, 2015-01-01 00:03:51.560, 0.023, -0.004, 1.008, 0, -0.305, 0, -0.22, -1.439, -122.783, -8.232, -4.998, -14.602, 23.37, 0.47879, -0.01193, -0.0043, -0.87778,
 14:59:00.991,d3:c7:8d:a5:a9:b5, 2015-01-01 00:03:51.560, 0.027, -0.004, 1.008, 0, -0.305, 0, -0.22, -1.445, -122.789, -8.232, -4.998, -14.602, 23.37, 0.47879, -0.01193, -0.0043, -0.87778,
 14:59:00.991,d3:c7:8d:a5:a9:b5, 2015-01-01 00:03:51.560, 0.027, -0.002, 1.009, 0, 0, 0, -0.22, -1.445, -122.789, -8.232, -4.998, -14.602, 23.37, 0.47879, -0.01193, -0.0043, -0.87778,
 14:59:00.991,d3:c7:8d:a5:a9:b5, 2015-01-01 00:03:51.560, 0.03, -0.002, 1.009, 0, 0, 0, -0.22, -1.445, -122.794, -8.232, -4.998, -14.602, 23.37, 0.47879, -0.01193, -0.0043, -0.87778,
 14:59:01.021,d3:c7:8d:a5:a9:b5, 2015-01-01 00:03:51.560, 0.03, -0.003, 1.01, -0.061, 0.671, 0, -0.22, -1.439, -122.794, -8.232, -4.998, -14.602, 23.37, 0.47879, -0.01193, -0.0043, -0.87778,
 14:59:01.021,d3:c7:8d:a5:a9:b5, 2015-01-01 00:03:51.560, 0.023, -0.003, 1.01, -0.061, 0.671, 0, -0.22, -1.434, -122.8, -8.232, -4.998, -14.602, 23.37, 0.47879, -0.01193, -0.0043, -0.87778,
 14:59:01.021,d3:c7:8d:a5:a9:b5, 2015-01-01 00:03:51.560, 0.023, -0.003, 1.008, -0.061, 0.793, 0, -0.22, -1.428, -122.8, -8.232, -4.998, -14.602, 23.37, 0.47879, -0.01193, -0.0043, -0.87778,
 14:59:01.021,d3:c7:8d:a5:a9:b5, 2015-01-01 00:03:51.560, 0.021, -0.003, 1.008, -0.061, 0.793, 0, -0.22, -1.417, -122.8, -8.232, -4.998, -14.602, 23.37, 0.47879, -0.01193, -0.0043, -0.87778,
 14:59:01.081,d3:c7:8d:a5:a9:b5, 2015-01-01 00:03:51.560, 0.021, -0.004, 1.008, -0.061, 0.061, 0, -0.22, -1.417, -122.805, -8.232, -4.998, -14.602, 23.37, 0.47879, -0.01193, -0.0043, -0.87778,
 14:59:01.081,d3:c7:8d:a5:a9:b5, 2015-01-01 00:03:51.560, 0.023, -0.004, 1.008, -0.061, 0.061, 0, -0.22, -1.412, -122.805, -8.232, -4.998, -14.602, 23.37, 0.47879, -0.01193, -0.0043, -0.87778,
 14:59:01.081,d3:c7:8d:a5:a9:b5, 2015-01-01 00:03:51.560, 0.023, -0.003, 1.007, -0.061, -0.549, 0, -0.22, -1.417, -122.811, -8.232, -4.998, -14.602, 23.37, 0.47879, -0.01193, -0.0043, -0.87778,
 14:59:01.081,d3:c7:8d:a5:a9:b5, 2015-01-01 00:03:51.560, 0.026, -0.003, 1.007, -0.061, -0.549, 0, -0.22, -1.423, -122.811, -8.232, -4.998, -14.602, 23.37, 0.47879, -0.01193, -0.0043, -0.87778,
 14:59:01.112,d3:c7:8d:a5:a9:b5, 2015-01-01 00:03:51.560, 0.026, -0.003, 1.009, 0, -0.732, 0, -0.22, -1.428, -122.811, -8.232, -4.998, -14.602, 23.37, 0.47879, -0.01193, -0.0043, -0.87778,
 14:59:01.112,d3:c7:8d:a5:a9:b5, 2015-01-01 00:03:51.560, 0.027, -0.003, 1.009, 0, -0.732, 0, -0.22, -1.434, -122.816, -8.232, -4.998, -14.602, 23.37, 0.47879, -0.01193, -0.0043, -0.87778,
 14:59:01.112,d3:c7:8d:a5:a9:b5, 2015-01-01 00:03:51.560, 0.027, -0.002, 1.009, 0, -0.366, 0, -0.22, -1.439, -122.816, -8.232, -4.998, -14.602, 23.37, 0.47879, -0.01193, -0.0043, -0.87778,
 14:59:01.112,d3:c7:8d:a5:a9:b5, 2015-01-01 00:03:51.560, 0.026, -0.002, 1.009, 0, -0.366, 0, -0.22, -1.445, -122.822, -8.232, -4.998, -14.602, 23.37, 0.47879, -0.01193, -0.0043, -0.87778,
 14:59:01.202,d3:c7:8d:a5:a9:b5, 2015-01-01 00:03:51.560, 0.026, -0.004, 1.008, 0, 0, 0, -0.22, -1.445, -122.822, -8.232, -4.998, -14.602, 23.37, 0.47879, -0.01193, -0.0043, -0.87778,
 14:59:01.202,d3:c7:8d:a5:a9:b5, 2015-01-01 00:03:51.560, 0.025, -0.004, 1.008, 0, 0, 0, -0.22, -1.445, -122.822, -8.232, -4.998, -14.602, 23.37, 0.47879, -0.01193, -0.0043, -0.87778,
 14:59:01.203,d3:c7:8d:a5:a9:b5, 2015-01-01 00:03:51.560, 0.025, -0.003, 1.008, 0, 0.061, 0, -0.22, -1.445, -122.827, -8.232, -4.998, -14.602, 23.37, 0.47879, -0.01193, -0.0043, -0.87778,
 14:59:01.203,d3:c7:8d:a5:a9:b5, 2015-01-01 00:03:51.560, 0.024, -0.003, 1.008, 0, 0.061, 0, -0.22, -1.445, -122.827, -8.232, -4.998, -14.602, 23.37, 0.47879, -0.01193, -0.0043, -0.87778,
 14:59:01.203,d3:c7:8d:a5:a9:b5, 2015-01-01 00:03:51.560, 0.024, -0.002, 1.008, 0, -0.305, 0, -0.22, -1.445, -122.833, -8.232, -4.998, -14.602, 23.37, 0.47879, -0.01193, -0.0043, -0.87778,
 14:59:01.203,d3:c7:8d:a5:a9:b5, 2015-01-01 00:03:51.560, 0.026, -0.002, 1.008, 0, -0.305, 0, -0.22, -1.45, -122.833, -8.232, -4.998, -14.602, 23.37, 0.47879, -0.01193, -0.0043, -0.87778,
 14:59:01.203,d3:c7:8d:a5:a9:b5, 2015-01-01 00:03:51.560, 0.026, -0.004, 1.008, 0, -0.305, 0, -0.22, -1.45, -122.833, -8.232, -4.998, -14.602, 23.37, 0.47879, -0.01193, -0.0043, -0.87778,
 14:59:01.204,d3:c7:8d:a5:a9:b5, 2015-01-01 00:03:51.560, 0.026, -0.004, 1.008, 0, -0.305, 0, -0.22, -1.456, -122.838, -8.232, -4.998, -14.602, 23.37, 0.47879, -0.01193, -0.0043, -0.87778,
 14:59:01.231,d3:c7:8d:a5:a9:b5, 2015-01-01 00:03:51.560, 0.026, -0.003, 1.009, 0, -0.244, 0, -0.22, -1.456, -122.838, -8.134, -4.998, -14.504, 23.37, 0.47879, -0.01193, -0.0043, -0.87778,
 14:59:01.231,d3:c7:8d:a5:a9:b5, 2015-01-01 00:03:51.560, 0.025, -0.003, 1.009, 0, -0.244, 0, -0.22, -1.461, -122.838, -8.134, -4.998, -14.504, 23.37, 0.47879, -0.01193, -0.0043, -0.87778,
 14:59:01.231,d3:c7:8d:a5:a9:b5, 2015-01-01 00:03:51.560, 0.025, -0.004, 1.008, 0, -0.305, 0, -0.22, -1.461, -122.844, -8.134, -4.998, -14.504, 23.37, 0.47879, -0.01193, -0.0043, -0.87778,
