Time,Device name,Chip Time(),Acceleration X(g),Acceleration Y(g),Acceleration Z(g),Angular velocity X(°/s),Angular velocity Y(°/s),Angular velocity Z(°/s),Angle X(°),Angle Y(°),Angle Z(°),Magnetic field X(ʯt),Magnetic field Y(ʯt),Magnetic field Z(ʯt),Temperature(℃),Quaternions 0(),Quaternions 1(),Quaternions 2(),Quaternions 3()
 13:32:09.995,d3:c7:8d:a5:a9:b5, 2015-01-01 00:15:04.585, 0.579, -0.358, 0.983, -0.183, -0.305, 0.061, -18.831, -28.196, -93.461, -60.858, 4.606, -11.662,, 0.6264, -0.28348, -0.04907, -0.7244,
 13:32:09.997,d3:c7:8d:a5:a9:b5, 2015-01-01 00:15:04.585, 0.577, -0.358, 0.983, -0.183, -0.305, 0.061, -18.836, -28.202, -93.433, -60.858, 4.606, -11.662,, 0.6264, -0.28348, -0.04907, -0.7244,
 13:32:09.999,d3:c7:8d:a5:a9:b5, 2015-01-01 00:15:04.585, 0.577, -0.359, 0.98, 0, 0.488, 0, -18.842, -28.202, -93.411, -60.858, 4.606, -11.662,, 0.6264, -0.28348, -0.04907, -0.7244,
 13:32:09.999,d3:c7:8d:a5:a9:b5, 2015-01-01 00:15:04.585, 0.569, -0.359, 0.98, 0, 0.488, 0, -18.847, -28.202, -93.389, -60.858, 4.606, -11.662,, 0.6264, -0.28348, -0.04907, -0.7244,
 13:32:10.022,d3:c7:8d:a5:a9:b5, 2015-01-01 00:15:04.585, 0.569, -0.355, 0.985, 0.061, 0.366, 0, -18.853, -28.202, -93.367, -60.858, 4.606, -11.662,, 0.6264, -0.28348, -0.04907, -0.7244,
 13:32:10.024,d3:c7:8d:a5:a9:b5, 2015-01-01 00:15:04.585, 0.574, -0.355, 0.985, 0.061, 0.366, 0, -18.858, -28.202, -93.345, -60.858, 4.606, -11.662,, 0.6264, -0.28348, -0.04907, -0.7244,
 13:32:10.024,d3:c7:8d:a5:a9:b5, 2015-01-01 00:15:04.585, 0.574, -0.358, 0.982, 0.061, 0, 0, -18.864, -28.207, -93.323, -60.858, 4.606, -11.662,, 0.6264, -0.28348, -0.04907, -0.7244,
 13:32:10.024,d3:c7:8d:a5:a9:b5, 2015-01-01 00:15:04.585, 0.569, -0.358, 0.982, 0.061, 0, 0, -18.869, -28.207, -93.301, -60.858, 4.606, -11.662,, 0.6264, -0.28348, -0.04907, -0.7244,
 13:32:10.081,d3:c7:8d:a5:a9:b5, 2015-01-01 00:15:04.940, 0.569, -0.355, 0.984, 0.366, -0.061, -0.122, -18.875, -28.213, -93.279, -60.858, 4.606, -11.662,, 0.6264, -0.28348, -0.04907, -0.7244,
 13:32:10.081,d3:c7:8d:a5:a9:b5, 2015-01-01 00:15:04.940, 0.572, -0.355, 0.984, 0.366, -0.061, -0.122, -18.875, -28.218, -93.257, -60.858, 4.606, -11.662,, 0.6264, -0.28348, -0.04907, -0.7244,
 13:32:10.081,d3:c7:8d:a5:a9:b5, 2015-01-01 00:15:04.940, 0.572, -0.357, 0.982, 0.183, -0.427, -0.244, -18.88, -28.224, -93.235, -60.858, 4.606, -11.662,, 0.6264, -0.28348, -0.04907, -0.7244,
 13:32:10.081,d3:c7:8d:a5:a9:b5, 2015-01-01 00:15:04.940, 0.576, -0.357, 0.982, 0.183, -0.427, -0.244, -18.885, -28.235, -93.214, -60.858, 4.606, -11.662,, 0.6264, -0.28348, -0.04907, -0.7244,
 13:32:10.109,d3:c7:8d:a5:a9:b5, 2015-01-01 00:15:04.940, 0.574, -0.354, 0.985, -0.061, 0.183, -0.061, -18.891, -28.235, -93.192, -60.858, 4.606, -11.662,, 0.6264, -0.28348, -0.04907, -0.7244,
 13:32:10.109,d3:c7:8d:a5:a9:b5, 2015-01-01 00:15:04.940, 0.574, -0.355, 0.983, 0, 0.427, 0, -18.896, -28.235, -93.17, -60.858, 4.606, -11.662,, 0.6264, -0.28348, -0.04907, -0.7244,
 13:32:10.109,d3:c7:8d:a5:a9:b5, 2015-01-01 00:15:04.940, 0.57, -0.355, 0.983, 0, 0.427, 0, -18.902, -28.235, -93.153, -60.858, 4.606, -11.662,, 0.6264, -0.28348, -0.04907, -0.7244,
 13:32:10.109,d3:c7:8d:a5:a9:b5, 2015-01-01 00:15:04.940, 0.57, -0.354, 0.981, 0, 0, 0, -18.907, -28.235, -93.131, -60.858, 4.606, -11.662,, 0.6264, -0.28348, -0.04907, -0.7244,
 13:32:10.142,d3:c7:8d:a5:a9:b5, 2015-01-01 00:15:04.940, 0.573, -0.354, 0.981, 0, 0, 0, -18.913, -28.235, -93.109, -60.858, 4.606, -11.662,, 0.6264, -0.28348, -0.04907, -0.7244,
 13:32:10.142,d3:c7:8d:a5:a9:b5, 2015-01-01 00:15:04.940, 0.573, -0.356, 0.984, 0, -0.183, 0, -18.918, -28.24, -93.087, -60.858, 4.606, -11.662,, 0.6264, -0.28348, -0.04907, -0.7244,
 13:32:10.142,d3:c7:8d:a5:a9:b5, 2015-01-01 00:15:04.940, 0.574, -0.356, 0.984, 0, -0.183, 0, -18.924, -28.246, -93.065, -60.858, 4.606, -11.662,, 0.6264, -0.28348, -0.04907, -0.7244,
 13:32:10.142,d3:c7:8d:a5:a9:b5, 2015-01-01 00:15:04.940, 0.574, -0.359, 0.983, -0.305, 0, 0.305, -18.935, -28.251, -93.043, -60.858, 4.606, -11.662,, 0.6264, -0.28348, -0.04907, -0.7244,
 13:32:10.200,d3:c7:8d:a5:a9:b5, 2015-01-01 00:15:04.940, 0.573, -0.359, 0.983, -0.305, 0, 0.305, -18.94, -28.251, -93.016, -60.858, 4.606, -11.662,, 0.6264, -0.28348, -0.04907, -0.7244,
 13:32:10.200,d3:c7:8d:a5:a9:b5, 2015-01-01 00:15:04.940, 0.573, -0.36, 0.98, 0.183, 0.305, 0, -18.951, -28.251, -92.994, -60.858, 4.606, -11.662,, 0.6264, -0.28348, -0.04907, -0.7244,
 13:32:10.200,d3:c7:8d:a5:a9:b5, 2015-01-01 00:15:04.940, 0.572, -0.36, 0.98, 0.183, 0.305, 0, -18.951, -28.251, -92.977, -60.858, 4.606, -11.662,, 0.6264, -0.28348, -0.04907, -0.7244,
 13:32:10.200,d3:c7:8d:a5:a9:b5, 2015-01-01 00:15:04.940, 0.572, -0.354, 0.984, 0.244, -0.061, -0.122, -18.957, -28.251, -92.955, -60.858, 4.606, -11.662,, 0.6264, -0.28348, -0.04907, -0.7244,
 13:32:10.230,d3:c7:8d:a5:a9:b5, 2015-01-01 00:15:04.940, 0.573, -0.354, 0.984, 0.244, -0.061, -0.122, -18.962, -28.257, -92.939, -60.858, 4.606, -11.662,, 0.6264, -0.28348, -0.04907, -0.7244,
 13:32:10.230,d3:c7:8d:a5:a9:b5, 2015-01-01 00:15:04.940, 0.573, -0.351, 0.983, 0.244, -0.183, -0.061, -18.962, -28.262, -92.917, -60.858, 4.606, -11.662,, 0.6264, -0.28348, -0.04907, -0.7244,
 13:32:10.230,d3:c7:8d:a5:a9:b5, 2015-01-01 00:15:04.940, 0.574, -0.351, 0.983, 0.244, -0.183, -0.061, -18.968, -28.268, -92.895, -60.858, 4.606, -11.662,, 0.6264, -0.28348, -0.04907, -0.7244,
 13:32:10.230,d3:c7:8d:a5:a9:b5, 2015-01-01 00:15:04.940, 0.574, -0.359, 0.985, -0.305, -0.244, 0.061, -18.973, -28.273, -92.873, -60.858, 4.606, -11.662,, 0.6264, -0.28348, -0.04907, -0.7244,
 13:32:10.260,d3:c7:8d:a5:a9:b5, 2015-01-01 00:15:04.940, 0.57, -0.359, 0.985, -0.305, -0.244, 0.061, -18.979, -28.279, -92.851, -60.760, 4.606, -11.564,, 0.6264, -0.28348, -0.04907, -0.7244,
 13:32:10.260,d3:c7:8d:a5:a9:b5, 2015-01-01 00:15:04.940, 0.57, -0.36, 0.981, -0.061, -0.793, -0.122, -18.99, -28.284, -92.834, -60.760, 4.606, -11.564,, 0.6264, -0.28348, -0.04907, -0.7244,
 13:32:10.260,d3:c7:8d:a5:a9:b5, 2015-01-01 00:15:04.940, 0.575, -0.36, 0.981, -0.061, -0.793, -0.122, -18.995, -28.295, -92.812, -60.760, 4.606, -11.564,, 0.6264, -0.28348, -0.04907, -0.7244,
 13:32:10.260,d3:c7:8d:a5:a9:b5, 2015-01-01 00:15:04.940, 0.575, -0.355, 0.984, -0.183, -1.343, -0.305, -19.006, -28.306, -92.791, -60.760, 4.606, -11.564,, 0.6264, -0.28348, -0.04907, -0.7244,
 13:32:10.321,d3:c7:8d:a5:a9:b5, 2015-01-01 00:15:04.940, 0.573, -0.355, 0.984, -0.183, -1.343, -0.305, -19.012, -28.323, -92.769, -60.760, 4.606, -11.564,, 0.6264, -0.28348, -0.04907, -0.7244,
 13:32:10.321,d3:c7:8d:a5:a9:b5, 2015-01-01 00:15:04.940, 0.573, -0.354, 0.985, -0.061, -0.122, -0.183, -19.017, -28.334, -92.747, -60.760, 4.606, -11.564,, 0.6264, -0.28348, -0.04907, -0.7244,
 13:32:10.321,d3:c7:8d:a5:a9:b5, 2015-01-01 00:15:04.940, 0.57, -0.354, 0.985, -0.061, -0.122, -0.183, -19.023, -28.339, -92.73, -60.760, 4.606, -11.564,, 0.6264, -0.28348, -0.04907, -0.7244,
 13:32:10.321,d3:c7:8d:a5:a9:b5, 2015-01-01 00:15:04.940, 0.57, -0.354, 0.981, -0.305, -0.061, 0.488, -19.034, -28.339, -92.708, -60.760, 4.606, -11.564,, 0.6264, -0.28348, -0.04907, -0.7244,
 13:32:10.350,d3:c7:8d:a5:a9:b5, 2015-01-01 00:15:04.940, 0.576, -0.354, 0.981, -0.305, -0.061, 0.488, -19.045, -28.345, -92.681, -60.760, 4.606, -11.564,, 0.63043, -0.28525, -0.05057, -0.72006,
 13:32:10.350,d3:c7:8d:a5:a9:b5, 2015-01-01 00:15:04.940, 0.576, -0.359, 0.982, -0.122, 0.061, 0.549, -19.056, -28.345, -92.659, -60.760, 4.606, -11.564,, 0.63043, -0.28525, -0.05057, -0.72006,
 13:32:10.350,d3:c7:8d:a5:a9:b5, 2015-01-01 00:15:04.940, 0.574, -0.359, 0.982, -0.122, 0.061, 0.549, -19.061, -28.345, -92.631, -60.760, 4.606, -11.564,, 0.63043, -0.28525, -0.05057, -0.72006,
 13:32:10.350,d3:c7:8d:a5:a9:b5, 2015-01-01 00:15:04.940, 0.574, -0.356, 0.982, 0, 0.183, 0.427, -19.072, -28.345, -92.609, -60.760, 4.606, -11.564,, 0.63043, -0.28525, -0.05057, -0.72006,
 13:32:10.380,d3:c7:8d:a5:a9:b5, 2015-01-01 00:15:04.940, 0.574, -0.356, 0.982, 0, 0.183, 0.427, -19.078, -28.345, -92.587, -60.760, 4.606, -11.564,, 0.63043, -0.28525, -0.05057, -0.72006,
 13:32:10.380,d3:c7:8d:a5:a9:b5, 2015-01-01 00:15:04.940, 0.574, -0.358, 0.982, 0, 0.305, 0.366, -19.083, -28.339, -92.565, -60.760, 4.606, -11.564,, 0.63043, -0.28525, -0.05057, -0.72006,
 13:32:10.380,d3:c7:8d:a5:a9:b5, 2015-01-01 00:15:04.940, 0.568, -0.358, 0.982, 0, 0.305, 0.366, -19.089, -28.339, -92.543, -60.760, 4.606, -11.564,, 0.63043, -0.28525, -0.05057, -0.72006,
 13:32:10.380,d3:c7:8d:a5:a9:b5, 2015-01-01 00:15:04.940, 0.568, -0.354, 0.985, 0.122, 0, 0.183, -19.094, -28.339, -92.527, -60.760, 4.606, -11.564,, 0.63043, -0.28525, -0.05057, -0.72006,
 13:32:10.440,d3:c7:8d:a5:a9:b5, 2015-01-01 00:15:05.300, 0.572, -0.354, 0.985, 0.122, 0, 0.183, -19.1, -28.339, -92.505, -60.760, 4.606, -11.564,, 0.63043, -0.28525, -0.05057, -0.72006,
 13:32:10.440,d3:c7:8d:a5:a9:b5, 2015-01-01 00:15:05.300, 0.572, -0.357, 0.982, -0.183, -0.427, 0.122, -19.105, -28.345, -92.483, -60.760, 4.606, -11.564,, 0.63043, -0.28525, -0.05057, -0.72006,
 13:32:10.440,d3:c7:8d:a5:a9:b5, 2015-01-01 00:15:05.300, 0.573, -0.357, 0.982, -0.183, -0.427, 0.122, -19.116, -28.35, -92.461, -60.760, 4.606, -11.564,, 0.63043, -0.28525, -0.05057, -0.72006,
 13:32:10.440,d3:c7:8d:a5:a9:b5, 2015-01-01 00:15:05.300, 0.573, -0.359, 0.983, 0.061, -0.305, 0.061, -19.122, -28.356, -92.444, -60.760, 4.606, -11.564,, 0.63043, -0.28525, -0.05057, -0.72006,
 13:32:10.470,d3:c7:8d:a5:a9:b5, 2015-01-01 00:15:05.300, 0.575, -0.359, 0.983, 0.061, -0.305, 0.061, -19.127, -28.361, -92.422, -60.760, 4.606, -11.564,, 0.63043, -0.28525, -0.05057, -0.72006,
 13:32:10.470,d3:c7:8d:a5:a9:b5, 2015-01-01 00:15:05.300, 0.575, -0.359, 0.986, 0.061, 0, 0, -19.133, -28.367, -92.406, -60.760, 4.606, -11.564,, 0.63043, -0.28525, -0.05057, -0.72006,
 13:32:10.470,d3:c7:8d:a5:a9:b5, 2015-01-01 00:15:05.300, 0.572, -0.359, 0.986, 0.061, 0, 0, -19.138, -28.367, -92.39, -60.760, 4.606, -11.564,, 0.63043, -0.28525, -0.05057, -0.72006,
 13:32:10.470,d3:c7:8d:a5:a9:b5, 2015-01-01 00:15:05.300, 0.572, -0.356, 0.983, 0.122, 0.61, 0, -19.138, -28.367, -92.373, -60.760, 4.606, -11.564,, 0.63043, -0.28525, -0.05057, -0.72006,
 13:32:10.501,d3:c7:8d:a5:a9:b5, 2015-01-01 00:15:05.300, 0.57, -0.356, 0.983, 0.122, 0.61, 0, -19.144, -28.361, -92.357, -60.760, 4.606, -11.564,, 0.63043, -0.28525, -0.05057, -0.72006,
 13:32:10.501,d3:c7:8d:a5:a9:b5, 2015-01-01 00:15:05.300, 0.57, -0.357, 0.983, 0, 0.488, 0, -19.144, -28.361, -92.34, -60.760, 4.606, -11.564,, 0.63043, -0.28525, -0.05057, -0.72006,
 13:32:10.501,d3:c7:8d:a5:a9:b5, 2015-01-01 00:15:05.300, 0.57, -0.357, 0.983, 0, 0.488, 0, -19.149, -28.356, -92.329, -60.760, 4.606, -11.564,, 0.63043, -0.28525, -0.05057, -0.72006,
 13:32:10.501,d3:c7:8d:a5:a9:b5, 2015-01-01 00:15:05.300, 0.57, -0.356, 0.985, -0.061, 0, 0, -19.155, -28.356, -92.313, -60.760, 4.606, -11.564,, 0.63043, -0.28525, -0.05057, -0.72006,
 13:32:10.562,d3:c7:8d:a5:a9:b5, 2015-01-01 00:15:05.300, 0.575, -0.356, 0.985, -0.061, 0, 0, -19.16, -28.356, -92.296, -60.760, 4.606, -11.564,, 0.63043, -0.28525, -0.05057, -0.72006,
 13:32:10.562,d3:c7:8d:a5:a9:b5, 2015-01-01 00:15:05.300, 0.575, -0.355, 0.981, -0.366, 0.122, 0.122, -19.166, -28.361, -92.28, -60.760, 4.606, -11.564,, 0.63043, -0.28525, -0.05057, -0.72006,
 13:32:10.562,d3:c7:8d:a5:a9:b5, 2015-01-01 00:15:05.300, 0.576, -0.355, 0.981, -0.366, 0.122, 0.122, -19.177, -28.361, -92.258, -60.760, 4.606, -11.564,, 0.63043, -0.28525, -0.05057, -0.72006,
 13:32:10.562,d3:c7:8d:a5:a9:b5, 2015-01-01 00:15:05.300, 0.576, -0.357, 0.981, -0.366, 0.305, 0.427, -19.182, -28.356, -92.241, -60.760, 4.606, -11.564,, 0.63043, -0.28525, -0.05057, -0.72006,
 13:32:10.592,d3:c7:8d:a5:a9:b5, 2015-01-01 00:15:05.300, 0.577, -0.357, 0.981, -0.366, 0.305, 0.427, -19.193, -28.356, -92.219, -60.760, 4.606, -11.564,, 0.63043, -0.28525, -0.05057, -0.72006,
 13:32:10.592,d3:c7:8d:a5:a9:b5, 2015-01-01 00:15:05.300, 0.577, -0.359, 0.982, 0, 0.671, 0.183, -19.199, -28.35, -92.208, -60.760, 4.606, -11.564,, 0.63043, -0.28525, -0.05057, -0.72006,
 13:32:10.592,d3:c7:8d:a5:a9:b5, 2015-01-01 00:15:05.300, 0.567, -0.359, 0.982, 0, 0.671, 0.183, -19.204, -28.345, -92.192, -60.760, 4.606, -11.564,, 0.63043, -0.28525, -0.05057, -0.72006,
 13:32:10.592,d3:c7:8d:a5:a9:b5, 2015-01-01 00:15:05.300, 0.567, -0.355, 0.983, 0.305, 0.305, 0.122, -19.204, -28.345, -92.175, -60.760, 4.606, -11.564,, 0.63043, -0.28525, -0.05057, -0.72006,
 13:32:10.652,d3:c7:8d:a5:a9:b5, 2015-01-01 00:15:05.300, 0.572, -0.355, 0.983, 0.305, 0.305, 0.122, -19.204, -28.345, -92.159, -60.760, 4.704, -11.564,, 0.63043, -0.28525, -0.05057, -0.72006,
 13:32:10.652,d3:c7:8d:a5:a9:b5, 2015-01-01 00:15:05.300, 0.572, -0.358, 0.983, 0, 0, 0.183, -19.21, -28.345, -92.142, -60.760, 4.704, -11.564,, 0.63043, -0.28525, -0.05057, -0.72006,
 13:32:10.652,d3:c7:8d:a5:a9:b5, 2015-01-01 00:15:05.300, 0.576, -0.358, 0.983, 0, 0, 0.183, -19.215, -28.35, -92.12, -60.760, 4.704, -11.564,, 0.63043, -0.28525, -0.05057, -0.72006,
 13:32:10.652,d3:c7:8d:a5:a9:b5, 2015-01-01 00:15:05.300, 0.576, -0.359, 0.985, 0.061, 0.977, 0.244, -19.221, -28.339, -92.109, -60.760, 4.704, -11.564,, 0.63043, -0.28525, -0.05057, -0.72006,
 13:32:10.679,d3:c7:8d:a5:a9:b5, 2015-01-01 00:15:05.300, 0.566, -0.359, 0.985, 0.061, 0.977, 0.244, -19.226, -28.334, -92.093, -60.760, 4.704, -11.564,, 0.63409, -0.28607, -0.0509, -0.71652,
 13:32:10.679,d3:c7:8d:a5:a9:b5, 2015-01-01 00:15:05.300, 0.566, -0.356, 0.984, 0.183, 0.977, 0.244, -19.226, -28.323, -92.076, -60.760, 4.704, -11.564,, 0.63409, -0.28607, -0.0509, -0.71652,
 13:32:10.679,d3:c7:8d:a5:a9:b5, 2015-01-01 00:15:05.300, 0.565, -0.356, 0.984, 0.183, 0.977, 0.244, -19.226, -28.317, -92.065, -60.760, 4.704, -11.564,, 0.63409, -0.28607, -0.0509, -0.71652,
 13:32:10.679,d3:c7:8d:a5:a9:b5, 2015-01-01 00:15:05.300, 0.565, -0.356, 0.984, 0, -0.061, 0.183, -19.232, -28.317, -92.043, -60.760, 4.704, -11.564,, 0.63409, -0.28607, -0.0509, -0.71652,
 13:32:10.711,d3:c7:8d:a5:a9:b5, 2015-01-01 00:15:05.300, 0.573, -0.356, 0.984, 0, -0.061, 0.183, -19.237, -28.323, -92.027, -60.760, 4.704, -11.564,, 0.63409, -0.28607, -0.0509, -0.71652,
 13:32:10.711,d3:c7:8d:a5:a9:b5, 2015-01-01 00:15:05.300, 0.573, -0.358, 0.983, 0, -0.488, 0.122, -19.243, -28.328, -92.01, -60.760, 4.704, -11.564,, 0.63409, -0.28607, -0.0509, -0.71652,
 13:32:10.711,d3:c7:8d:a5:a9:b5, 2015-01-01 00:15:05.300, 0.574, -0.358, 0.983, 0, -0.488, 0.122, -19.248, -28.334, -91.989, -60.760, 4.704, -11.564,, 0.63409, -0.28607, -0.0509, -0.71652,
 13:32:10.711,d3:c7:8d:a5:a9:b5, 2015-01-01 00:15:05.300, 0.574, -0.355, 0.984, -0.122, 0.122, 0.366, -19.259, -28.334, -91.972, -60.760, 4.704, -11.564,, 0.63409, -0.28607, -0.0509, -0.71652,
 13:32:10.771,d3:c7:8d:a5:a9:b5, 2015-01-01 00:15:05.625, 0.574, -0.355, 0.984, -0.122, 0.122, 0.366, -19.265, -28.334, -91.956, -60.760, 4.704, -11.564,, 0.63409, -0.28607, -0.0509, -0.71652,
 13:32:10.771,d3:c7:8d:a5:a9:b5, 2015-01-01 00:15:05.625, 0.574, -0.359, 0.981, -0.122, 0.183, 0.366, -19.27, -28.328, -91.939, -60.760, 4.704, -11.564,, 0.63409, -0.28607, -0.0509, -0.71652,
 13:32:10.771,d3:c7:8d:a5:a9:b5, 2015-01-01 00:15:05.625, 0.57, -0.359, 0.981, -0.122, 0.183, 0.366, -19.276, -28.328, -91.917, -60.760, 4.704, -11.564,, 0.63409, -0.28607, -0.0509, -0.71652,
 13:32:10.771,d3:c7:8d:a5:a9:b5, 2015-01-01 00:15:05.625, 0.57, -0.358, 0.983, 0.183, 0.244, 0.122, -19.281, -28.328, -91.906, -60.760, 4.704, -11.564,, 0.63409, -0.28607, -0.0509, -0.71652,
 13:32:10.800,d3:c7:8d:a5:a9:b5, 2015-01-01 00:15:05.625, 0.565, -0.358, 0.983, 0.183, 0.244, 0.122, -19.281, -28.328, -91.89, -60.760, 4.704, -11.564,, 0.63409, -0.28607, -0.0509, -0.71652,
 13:32:10.800,d3:c7:8d:a5:a9:b5, 2015-01-01 00:15:05.625, 0.565, -0.356, 0.984, 0.122, -0.549, 0, -19.286, -28.334, -91.873, -60.760, 4.704, -11.564,, 0.63409, -0.28607, -0.0509, -0.71652,
 13:32:10.800,d3:c7:8d:a5:a9:b5, 2015-01-01 00:15:05.625, 0.57, -0.356, 0.984, 0.122, -0.549, 0, -19.292, -28.345, -91.857, -60.760, 4.704, -11.564,, 0.63409, -0.28607, -0.0509, -0.71652,
 13:32:10.800,d3:c7:8d:a5:a9:b5, 2015-01-01 00:15:05.625, 0.57, -0.357, 0.984, -0.061, -0.854, 0, -19.297, -28.35, -91.84, -60.760, 4.704, -11.564,, 0.63409, -0.28607, -0.0509, -0.71652,
 13:32:10.830,d3:c7:8d:a5:a9:b5, 2015-01-01 00:15:05.625, 0.573, -0.357, 0.984, -0.061, -0.854, 0, -19.303, -28.361, -91.824, -60.760, 4.704, -11.564,, 0.63409, -0.28607, -0.0509, -0.71652,
 13:32:10.830,d3:c7:8d:a5:a9:b5, 2015-01-01 00:15:05.625, 0.573, -0.357, 0.985, 0, -0.488, -0.061, -19.308, -28.367, -91.807, -60.760, 4.704, -11.564,, 0.63409, -0.28607, -0.0509, -0.71652,
 13:32:10.830,d3:c7:8d:a5:a9:b5, 2015-01-01 00:15:05.625, 0.571, -0.357, 0.985, 0, -0.488, -0.061, -19.308, -28.372, -91.791, -60.760, 4.704, -11.564,, 0.63409, -0.28607, -0.0509, -0.71652,
 13:32:10.830,d3:c7:8d:a5:a9:b5, 2015-01-01 00:15:05.625, 0.571, -0.357, 0.982, 0.061, -0.061, -0.061, -19.314, -28.378, -91.78, -60.760, 4.704, -11.564,, 0.63409, -0.28607, -0.0509, -0.71652,
 13:32:10.890,d3:c7:8d:a5:a9:b5, 2015-01-01 00:15:05.625, 0.569, -0.357, 0.982, 0.061, -0.061, -0.061, -19.319, -28.378, -91.763, -60.760, 4.704, -11.564,, 0.63409, -0.28607, -0.0509, -0.71652,
 13:32:10.890,d3:c7:8d:a5:a9:b5, 2015-01-01 00:15:05.625, 0.569, -0.358, 0.983, 0.122, -0.183, 0, -19.319, -28.383, -91.752, -60.760, 4.704, -11.564,, 0.63409, -0.28607, -0.0509, -0.71652,
 13:32:10.890,d3:c7:8d:a5:a9:b5, 2015-01-01 00:15:05.625, 0.573, -0.358, 0.983, 0.122, -0.183, 0, -19.325, -28.383, -91.736, -60.760, 4.704, -11.564,, 0.63409, -0.28607, -0.0509, -0.71652,
 13:32:10.890,d3:c7:8d:a5:a9:b5, 2015-01-01 00:15:05.625, 0.573, -0.356, 0.983, 0.244, -0.122, 0.061, -19.325, -28.389, -91.719, -60.760, 4.704, -11.564,, 0.63409, -0.28607, -0.0509, -0.71652,
 13:32:10.922,d3:c7:8d:a5:a9:b5, 2015-01-01 00:15:05.625, 0.571, -0.356, 0.983, 0.244, -0.122, 0.061, -19.325, -28.389, -91.708, -60.760, 4.704, -11.564,, 0.63409, -0.28607, -0.0509, -0.71652,
 13:32:10.922,d3:c7:8d:a5:a9:b5, 2015-01-01 00:15:05.625, 0.571, -0.354, 0.985, 0.061, -0.183, 0.122, -19.33, -28.394, -91.692, -60.760, 4.704, -11.564,, 0.63409, -0.28607, -0.0509, -0.71652,
 13:32:10.922,d3:c7:8d:a5:a9:b5, 2015-01-01 00:15:05.625, 0.573, -0.354, 0.985, 0.061, -0.183, 0.122, -19.336, -28.394, -91.675, -60.760, 4.704, -11.564,, 0.63409, -0.28607, -0.0509, -0.71652,
 13:32:10.922,d3:c7:8d:a5:a9:b5, 2015-01-01 00:15:05.625, 0.573, -0.358, 0.983, -0.183, 0, 0.061, -19.341, -28.394, -91.659, -60.760, 4.704, -11.564,, 0.63409, -0.28607, -0.0509, -0.71652,
 13:32:10.951,d3:c7:8d:a5:a9:b5, 2015-01-01 00:15:05.625, 0.571, -0.358, 0.983, -0.183, 0, 0.061, -19.347, -28.4, -91.648, -60.858, 4.704, -11.564,, 0.63409, -0.28607, -0.0509, -0.71652,
 13:32:10.951,d3:c7:8d:a5:a9:b5, 2015-01-01 00:15:05.625, 0.571, -0.358, 0.983, -0.122, -0.061, 0.061, -19.352, -28.4, -91.631, -60.858, 4.704, -11.564,, 0.63409, -0.28607, -0.0509, -0.71652,
 13:32:10.951,d3:c7:8d:a5:a9:b5, 2015-01-01 00:15:05.625, 0.571, -0.358, 0.983, -0.122, -0.061, 0.061, -19.358, -28.4, -91.62, -60.858, 4.704, -11.564,, 0.63409, -0.28607, -0.0509, -0.71652,
 13:32:10.951,d3:c7:8d:a5:a9:b5, 2015-01-01 00:15:05.625, 0.571, -0.356, 0.985, -0.061, -0.183, -0.061, -19.363, -28.405, -91.604, -60.858, 4.704, -11.564,, 0.63409, -0.28607, -0.0509, -0.71652,
 13:32:11.010,d3:c7:8d:a5:a9:b5, 2015-01-01 00:15:05.625, 0.57, -0.356, 0.985, -0.061, -0.183, -0.061, -19.363, -28.411, -91.593, -60.858, 4.704, -11.564,, 0.63409, -0.28607, -0.0509, -0.71652,
 13:32:11.010,d3:c7:8d:a5:a9:b5, 2015-01-01 00:15:05.625, 0.57, -0.358, 0.983, -0.122, -0.366, -0.061, -19.369, -28.411, -91.582, -60.858, 4.704, -11.564,, 0.63409, -0.28607, -0.0509, -0.71652,
 13:32:11.010,d3:c7:8d:a5:a9:b5, 2015-01-01 00:15:05.625, 0.57, -0.358, 0.983, -0.122, -0.366, -0.061, -19.374, -28.416, -91.566, -60.858, 4.704, -11.564,, 0.63409, -0.28607, -0.0509, -0.71652,
 13:32:11.010,d3:c7:8d:a5:a9:b5, 2015-01-01 00:15:05.625, 0.572, -0.357, 0.983, 0.061, -0.366, -0.061, -19.38, -28.422, -91.555, -60.858, 4.704, -11.564,, 0.63409, -0.28607, -0.0509, -0.71652,
 13:32:11.039,d3:c7:8d:a5:a9:b5, 2015-01-01 00:15:05.625, 0.572, -0.357, 0.985, -0.183, -0.305, 0, -19.385, -28.427, -91.538, -60.858, 4.704, -11.564,, 0.63672, -0.28717, -0.05179, -0.71368,
 13:32:11.039,d3:c7:8d:a5:a9:b5, 2015-01-01 00:15:05.625, 0.575, -0.357, 0.985, -0.183, -0.305, 0, -19.391, -28.433, -91.527, -60.858, 4.704, -11.564,, 0.63672, -0.28717, -0.05179, -0.71368,
 13:32:11.039,d3:c7:8d:a5:a9:b5, 2015-01-01 00:15:05.625, 0.575, -0.359, 0.984, 0, 0.122, 0, -19.391, -28.433, -91.516, -60.858, 4.704, -11.564,, 0.63672, -0.28717, -0.05179, -0.71368,
 13:32:11.039,d3:c7:8d:a5:a9:b5, 2015-01-01 00:15:05.625, 0.57, -0.359, 0.984, 0, 0.122, 0, -19.396, -28.433, -91.505, -60.858, 4.704, -11.564,, 0.63672, -0.28717, -0.05179, -0.71368,
 13:32:11.071,d3:c7:8d:a5:a9:b5, 2015-01-01 00:15:05.625, 0.57, -0.358, 0.983, 0, 0.427, 0, -19.402, -28.433, -91.489, -60.858, 4.704, -11.564,, 0.63672, -0.28717, -0.05179, -0.71368,
 13:32:11.071,d3:c7:8d:a5:a9:b5, 2015-01-01 00:15:05.625, 0.568, -0.358, 0.983, 0, 0.427, 0, -19.402, -28.427, -91.483, -60.858, 4.704, -11.564,, 0.63672, -0.28717, -0.05179, -0.71368,
 13:32:11.071,d3:c7:8d:a5:a9:b5, 2015-01-01 00:15:05.625, 0.568, -0.356, 0.982, 0.122, -0.244, 0, -19.407, -28.427, -91.467, -60.858, 4.704, -11.564,, 0.63672, -0.28717, -0.05179, -0.71368,
 13:32:11.071,d3:c7:8d:a5:a9:b5, 2015-01-01 00:15:05.625, 0.572, -0.356, 0.982, 0.122, -0.244, 0, -19.407, -28.433, -91.456, -60.858, 4.704, -11.564,, 0.63672, -0.28717, -0.05179, -0.71368,
 13:32:11.130,d3:c7:8d:a5:a9:b5, 2015-01-01 00:15:05.985, 0.572, -0.358, 0.985, 0, -0.549, -0.061, -19.413, -28.438, -91.445, -60.858, 4.704, -11.564,, 0.63672, -0.28717, -0.05179, -0.71368,
 13:32:11.130,d3:c7:8d:a5:a9:b5, 2015-01-01 00:15:05.985, 0.576, -0.358, 0.985, 0, -0.549, -0.061, -19.413, -28.444, -91.434, -60.858, 4.704, -11.564,, 0.63672, -0.28717, -0.05179, -0.71368,
 13:32:11.130,d3:c7:8d:a5:a9:b5, 2015-01-01 00:15:05.985, 0.576, -0.358, 0.984, 0.061, -0.061, -0.061, -19.418, -28.449, -91.417, -60.858, 4.704, -11.564,, 0.63672, -0.28717, -0.05179, -0.71368,
 13:32:11.130,d3:c7:8d:a5:a9:b5, 2015-01-01 00:15:05.985, 0.573, -0.358, 0.984, 0.061, -0.061, -0.061, -19.418, -28.449, -91.406, -60.858, 4.704, -11.564,, 0.63672, -0.28717, -0.05179, -0.71368,
 13:32:11.159,d3:c7:8d:a5:a9:b5, 2015-01-01 00:15:05.985, 0.573, -0.356, 0.982, 0.122, 0.244, -0.061, -19.424, -28.449, -91.395, -60.858, 4.704, -11.564,, 0.63672, -0.28717, -0.05179, -0.71368,
 13:32:11.159,d3:c7:8d:a5:a9:b5, 2015-01-01 00:15:05.985, 0.57, -0.356, 0.982, 0.122, 0.244, -0.061, -19.424, -28.449, -91.384, -60.858, 4.704, -11.564,, 0.63672, -0.28717, -0.05179, -0.71368,
 13:32:11.159,d3:c7:8d:a5:a9:b5, 2015-01-01 00:15:05.985, 0.57, -0.357, 0.983, 0, 0.244, 0, -19.424, -28.449, -91.373, -60.858, 4.704, -11.564,, 0.63672, -0.28717, -0.05179, -0.71368,
 13:32:11.159,d3:c7:8d:a5:a9:b5, 2015-01-01 00:15:05.985, 0.569, -0.357, 0.983, 0, 0.244, 0, -19.429, -28.449, -91.362, -60.858, 4.704, -11.564,, 0.63672, -0.28717, -0.05179, -0.71368,
 13:32:11.190,d3:c7:8d:a5:a9:b5, 2015-01-01 00:15:05.985, 0.569, -0.358, 0.984, 0, 0.061, 0, -19.429, -28.449, -91.351, -60.858, 4.704, -11.564,, 0.63672, -0.28717, -0.05179, -0.71368,
 13:32:11.190,d3:c7:8d:a5:a9:b5, 2015-01-01 00:15:05.985, 0.57, -0.358, 0.984, 0, 0.061, 0, -19.435, -28.449, -91.34, -60.858, 4.704, -11.564,, 0.63672, -0.28717, -0.05179, -0.71368,
 13:32:11.190,d3:c7:8d:a5:a9:b5, 2015-01-01 00:15:05.985, 0.57, -0.357, 0.984, 0.122, -0.122, 0, -19.435, -28.449, -91.329, -60.858, 4.704, -11.564,, 0.63672, -0.28717, -0.05179, -0.71368,
 13:32:11.190,d3:c7:8d:a5:a9:b5, 2015-01-01 00:15:05.985, 0.572, -0.357, 0.984, 0.122, -0.122, 0, -19.44, -28.455, -91.318, -60.858, 4.704, -11.564,, 0.63672, -0.28717, -0.05179, -0.71368,
 13:32:11.280,d3:c7:8d:a5:a9:b5, 2015-01-01 00:15:05.985, 0.572, -0.356, 0.987, -0.061, 0, 0, -19.44, -28.455, -91.307, -60.858, 4.704, -11.564,, 0.63672, -0.28717, -0.05179, -0.71368,
 13:32:11.280,d3:c7:8d:a5:a9:b5, 2015-01-01 00:15:05.985, 0.574, -0.356, 0.987, -0.061, 0, 0, -19.446, -28.455, -91.296, -60.858, 4.704, -11.564,, 0.63672, -0.28717, -0.05179, -0.71368,
 13:32:11.280,d3:c7:8d:a5:a9:b5, 2015-01-01 00:15:05.985, 0.574, -0.358, 0.984, -0.366, 0.854, 0.183, -19.451, -28.455, -91.285, -60.858, 4.704, -11.564,, 0.63672, -0.28717, -0.05179, -0.71368,
 13:32:11.280,d3:c7:8d:a5:a9:b5, 2015-01-01 00:15:05.985, 0.565, -0.358, 0.984, -0.366, 0.854, 0.183, -19.457, -28.444, -91.274, -60.858, 4.704, -11.564,, 0.63672, -0.28717, -0.05179, -0.71368,
 13:32:11.282,d3:c7:8d:a5:a9:b5, 2015-01-01 00:15:05.985, 0.565, -0.356, 0.982, -0.122, 0.977, 0, -19.462, -28.438, -91.269, -60.858, 4.704, -11.564,, 0.63672, -0.28717, -0.05179, -0.71368,
 13:32:11.282,d3:c7:8d:a5:a9:b5, 2015-01-01 00:15:05.985, 0.567, -0.356, 0.982, -0.122, 0.977, 0, -19.462, -28.427, -91.258, -60.858, 4.704, -11.564,, 0.63672, -0.28717, -0.05179, -0.71368,
 13:32:11.282,d3:c7:8d:a5:a9:b5, 2015-01-01 00:15:05.985, 0.567, -0.359, 0.982, -0.366, -0.061, 0, -19.468, -28.427, -91.252, -60.858, 4.704, -11.564,, 0.63672, -0.28717, -0.05179, -0.71368,
 13:32:11.282,d3:c7:8d:a5:a9:b5, 2015-01-01 00:15:05.985, 0.568, -0.359, 0.982, -0.366, -0.061, 0, -19.473, -28.427, -91.241, -60.858, 4.704, -11.564,, 0.63672, -0.28717, -0.05179, -0.71368,
 13:32:11.310,d3:c7:8d:a5:a9:b5, 2015-01-01 00:15:05.985, 0.568, -0.356, 0.982, 0.183, -0.854, 0, -19.479, -28.433, -91.225, -60.858, 4.704, -11.466,, 0.63672, -0.28717, -0.05179, -0.71368,
 13:32:11.310,d3:c7:8d:a5:a9:b5, 2015-01-01 00:15:05.985, 0.577, -0.356, 0.982, 0.183, -0.854, 0, -19.484, -28.444, -91.214, -60.858, 4.704, -11.466,, 0.63672, -0.28717, -0.05179, -0.71368,
 13:32:11.310,d3:c7:8d:a5:a9:b5, 2015-01-01 00:15:05.985, 0.577, -0.358, 0.985, -0.305, -0.61, 0, -19.484, -28.449, -91.203, -60.858, 4.704, -11.466,, 0.63672, -0.28717, -0.05179, -0.71368,
 13:32:11.311,d3:c7:8d:a5:a9:b5, 2015-01-01 00:15:05.985, 0.576, -0.358, 0.985, -0.305, -0.61, 0, -19.495, -28.455, -91.187, -60.858, 4.704, -11.466,, 0.63672, -0.28717, -0.05179, -0.71368,
 13:32:11.371,d3:c7:8d:a5:a9:b5, 2015-01-01 00:15:05.985, 0.576, -0.357, 0.984, -0.061, 0.488, 0, -19.501, -28.46, -91.176, -60.858, 4.704, -11.466,, 0.63672, -0.28717, -0.05179, -0.71368,
 13:32:11.371,d3:c7:8d:a5:a9:b5, 2015-01-01 00:15:05.985, 0.569, -0.357, 0.984, -0.061, 0.488, 0, -19.501, -28.455, -91.17, -60.858, 4.704, -11.466,, 0.63672, -0.28717, -0.05179, -0.71368,
 13:32:11.371,d3:c7:8d:a5:a9:b5, 2015-01-01 00:15:05.985, 0.569, -0.358, 0.982, -0.122, 0.61, 0, -19.506, -28.449, -91.159, -60.858, 4.704, -11.466,, 0.63672, -0.28717, -0.05179, -0.71368,
 13:32:11.371,d3:c7:8d:a5:a9:b5, 2015-01-01 00:15:05.985, 0.564, -0.358, 0.982, -0.122, 0.61, 0, -19.506, -28.444, -91.154, -60.858, 4.704, -11.466,, 0.63672, -0.28717, -0.05179, -0.71368,
 13:32:11.401,d3:c7:8d:a5:a9:b5, 2015-01-01 00:15:05.985, 0.564, -0.358, 0.984, 0, -0.183, 0, -19.512, -28.444, -91.143, -60.858, 4.704, -11.466,, 0.63879, -0.2879, -0.05225, -0.71149,
 13:32:11.401,d3:c7:8d:a5:a9:b5, 2015-01-01 00:15:05.985, 0.57, -0.358, 0.984, 0, -0.183, 0, -19.512, -28.449, -91.137, -60.858, 4.704, -11.466,, 0.63879, -0.2879, -0.05225, -0.71149,
 13:32:11.401,d3:c7:8d:a5:a9:b5, 2015-01-01 00:15:05.985, 0.57, -0.357, 0.984, -0.061, -0.916, 0, -19.517, -28.455, -91.121, -60.858, 4.704, -11.466,, 0.63879, -0.2879, -0.05225, -0.71149,
 13:32:11.401,d3:c7:8d:a5:a9:b5, 2015-01-01 00:15:05.985, 0.578, -0.357, 0.984, -0.061, -0.916, 0, -19.523, -28.466, -91.11, -60.858, 4.704, -11.466,, 0.63879, -0.2879, -0.05225, -0.71149,
 13:32:11.430,d3:c7:8d:a5:a9:b5, 2015-01-01 00:15:05.985, 0.578, -0.36, 0.983, 0, 0, 0, -19.528, -28.466, -91.099, -60.858, 4.704, -11.466,, 0.63879, -0.2879, -0.05225, -0.71149,
 13:32:11.430,d3:c7:8d:a5:a9:b5, 2015-01-01 00:15:05.985, 0.572, -0.36, 0.983, 0, 0, 0, -19.528, -28.471, -91.088, -60.858, 4.704, -11.466,, 0.63879, -0.2879, -0.05225, -0.71149,
 13:32:11.430,d3:c7:8d:a5:a9:b5, 2015-01-01 00:15:05.985, 0.572, -0.357, 0.983, 0.183, 0.61, 0, -19.528, -28.466, -91.082, -60.858, 4.704, -11.466,, 0.63879, -0.2879, -0.05225, -0.71149,
 13:32:11.430,d3:c7:8d:a5:a9:b5, 2015-01-01 00:15:05.985, 0.568, -0.357, 0.983, 0.183, 0.61, 0, -19.528, -28.46, -91.071, -60.858, 4.704, -11.466,, 0.63879, -0.2879, -0.05225, -0.71149,
 13:32:11.490,d3:c7:8d:a5:a9:b5, 2015-01-01 00:15:06.340, 0.568, -0.359, 0.983, 0.061, 0.488, 0, -19.528, -28.46, -91.066, -60.858, 4.704, -11.466,, 0.63879, -0.2879, -0.05225, -0.71149,
 13:32:11.490,d3:c7:8d:a5:a9:b5, 2015-01-01 00:15:06.340, 0.57, -0.359, 0.983, 0.061, 0.488, 0, -19.534, -28.455, -91.06, -60.858, 4.704, -11.466,, 0.63879, -0.2879, -0.05225, -0.71149,
 13:32:11.490,d3:c7:8d:a5:a9:b5, 2015-01-01 00:15:06.340, 0.57, -0.358, 0.983, 0.244, 0, 0.305, -19.534, -28.455, -91.044, -60.858, 4.704, -11.466,, 0.63879, -0.2879, -0.05225, -0.71149,
 13:32:11.490,d3:c7:8d:a5:a9:b5, 2015-01-01 00:15:06.340, 0.572, -0.358, 0.983, 0.244, 0, 0.305, -19.534, -28.455, -91.033, -60.858, 4.704, -11.466,, 0.63879, -0.2879, -0.05225, -0.71149,
 13:32:11.520,d3:c7:8d:a5:a9:b5, 2015-01-01 00:15:06.340, 0.572, -0.358, 0.983, 0.244, 0.061, 0.305, -19.539, -28.455, -91.022, -60.858, 4.704, -11.466,, 0.63879, -0.2879, -0.05225, -0.71149,
 13:32:11.520,d3:c7:8d:a5:a9:b5, 2015-01-01 00:15:06.340, 0.573, -0.358, 0.983, 0.244, 0.061, 0.305, -19.539, -28.455, -91.011, -60.858, 4.704, -11.466,, 0.63879, -0.2879, -0.05225, -0.71149,
 13:32:11.520,d3:c7:8d:a5:a9:b5, 2015-01-01 00:15:06.340, 0.573, -0.358, 0.985, 0.244, 0.61, 0.427, -19.539, -28.449, -90.994, -60.858, 4.704, -11.466,, 0.63879, -0.2879, -0.05225, -0.71149,
 13:32:11.520,d3:c7:8d:a5:a9:b5, 2015-01-01 00:15:06.340, 0.571, -0.358, 0.985, 0.244, 0.61, 0.427, -19.545, -28.444, -90.983, -60.858, 4.704, -11.466,, 0.63879, -0.2879, -0.05225, -0.71149,
 13:32:11.550,d3:c7:8d:a5:a9:b5, 2015-01-01 00:15:06.340, 0.571, -0.357, 0.985, 0.183, 0.977, 0.427, -19.545, -28.433, -90.978, -60.858, 4.704, -11.466,, 0.63879, -0.2879, -0.05225, -0.71149,
 13:32:11.550,d3:c7:8d:a5:a9:b5, 2015-01-01 00:15:06.340, 0.564, -0.357, 0.985, 0.183, 0.977, 0.427, -19.545, -28.422, -90.967, -60.858, 4.704, -11.466,, 0.63879, -0.2879, -0.05225, -0.71149,
 13:32:11.550,d3:c7:8d:a5:a9:b5, 2015-01-01 00:15:06.340, 0.564, -0.357, 0.983, 0.183, 0.671, 0.244, -19.545, -28.416, -90.956, -60.858, 4.704, -11.466,, 0.63879, -0.2879, -0.05225, -0.71149,
 13:32:11.550,d3:c7:8d:a5:a9:b5, 2015-01-01 00:15:06.340, 0.565, -0.357, 0.983, 0.183, 0.671, 0.244, -19.545, -28.411, -90.95, -60.858, 4.704, -11.466,, 0.63879, -0.2879, -0.05225, -0.71149,
 13:32:11.611,d3:c7:8d:a5:a9:b5, 2015-01-01 00:15:06.340, 0.565, -0.356, 0.985, 0, -0.183, 0, -19.55, -28.411, -90.939, -60.858, 4.704, -11.466,, 0.63879, -0.2879, -0.05225, -0.71149,
 13:32:11.611,d3:c7:8d:a5:a9:b5, 2015-01-01 00:15:06.340, 0.568, -0.356, 0.985, 0, -0.183, 0, -19.55, -28.416, -90.928, -60.858, 4.704, -11.466,, 0.63879, -0.2879, -0.05225, -0.71149,
 13:32:11.611,d3:c7:8d:a5:a9:b5, 2015-01-01 00:15:06.340, 0.568, -0.357, 0.987, -0.061, -0.61, -0.122, -19.556, -28.422, -90.917, -60.858, 4.704, -11.466,, 0.63879, -0.2879, -0.05225, -0.71149,
 13:32:11.611,d3:c7:8d:a5:a9:b5, 2015-01-01 00:15:06.340, 0.569, -0.357, 0.987, -0.061, -0.61, -0.122, -19.561, -28.427, -90.912, -60.858, 4.704, -11.466,, 0.63879, -0.2879, -0.05225, -0.71149,
 13:32:11.640,d3:c7:8d:a5:a9:b5, 2015-01-01 00:15:06.340, 0.569, -0.359, 0.986, -0.183, -0.61, -0.244, -19.561, -28.438, -90.901, -60.858, 4.704, -11.466,, 0.63879, -0.2879, -0.05225, -0.71149,
 13:32:11.640,d3:c7:8d:a5:a9:b5, 2015-01-01 00:15:06.340, 0.566, -0.359, 0.986, -0.183, -0.61, -0.244, -19.567, -28.444, -90.895, -60.858, 4.704, -11.466,, 0.63879, -0.2879, -0.05225, -0.71149,
 13:32:11.640,d3:c7:8d:a5:a9:b5, 2015-01-01 00:15:06.340, 0.566, -0.356, 0.986, -0.427, -0.793, -0.061, -19.578, -28.449, -90.884, -60.858, 4.704, -11.466,, 0.63879, -0.2879, -0.05225, -0.71149,
 13:32:11.640,d3:c7:8d:a5:a9:b5, 2015-01-01 00:15:06.340, 0.57, -0.356, 0.986, -0.427, -0.793, -0.061, -19.583, -28.46, -90.873, -60.858, 4.704, -11.466,, 0.63879, -0.2879, -0.05225, -0.71149,
 13:32:11.671,d3:c7:8d:a5:a9:b5, 2015-01-01 00:15:06.340, 0.57, -0.357, 0.981, -0.488, -0.793, 0.183, -19.594, -28.466, -90.857, -60.858, 4.704, -11.368,, 0.63879, -0.2879, -0.05225, -0.71149,
 13:32:11.671,d3:c7:8d:a5:a9:b5, 2015-01-01 00:15:06.340, 0.566, -0.357, 0.981, -0.488, -0.793, 0.183, -19.6, -28.471, -90.846, -60.858, 4.704, -11.368,, 0.63879, -0.2879, -0.05225, -0.71149,
 13:32:11.671,d3:c7:8d:a5:a9:b5, 2015-01-01 00:15:06.340, 0.566, -0.353, 0.986, -0.366, -1.221, 0.671, -19.616, -28.482, -90.824, -60.858, 4.704, -11.368,, 0.63879, -0.2879, -0.05225, -0.71149,
 13:32:11.671,d3:c7:8d:a5:a9:b5, 2015-01-01 00:15:06.340, 0.583, -0.353, 0.986, -0.366, -1.221, 0.671, -19.627, -28.493, -90.802, -60.858, 4.704, -11.368,, 0.63879, -0.2879, -0.05225, -0.71149,
 13:32:11.731,d3:c7:8d:a5:a9:b5, 2015-01-01 00:15:06.340, 0.583, -0.366, 0.983, -0.488, -0.244, 1.038, -19.638, -28.493, -90.786, -60.858, 4.704, -11.368,, 0.63879, -0.2879, -0.05225, -0.71149,
 13:32:11.731,d3:c7:8d:a5:a9:b5, 2015-01-01 00:15:06.340, 0.566, -0.366, 0.983, -0.488, -0.244, 1.038, -19.649, -28.488, -90.764, -60.858, 4.704, -11.368,, 0.63879, -0.2879, -0.05225, -0.71149,
 13:32:11.731,d3:c7:8d:a5:a9:b5, 2015-01-01 00:15:06.340, 0.566, -0.36, 0.983, 0.854, 0.427, 0.793, -19.649, -28.482, -90.747, -60.858, 4.704, -11.368,, 0.63879, -0.2879, -0.05225, -0.71149,
 13:32:11.731,d3:c7:8d:a5:a9:b5, 2015-01-01 00:15:06.340, 0.563, -0.36, 0.983, 0.854, 0.427, 0.793, -19.644, -28.477, -90.731, -60.858, 4.704, -11.368,, 0.63879, -0.2879, -0.05225, -0.71149,
 13:32:11.760,d3:c7:8d:a5:a9:b5, 2015-01-01 00:15:06.340, 0.563, -0.359, 0.982, 0.427, -1.404, 0.427, -19.649, -28.488, -90.714, -60.858, 4.704, -11.368,, 0.64084, -0.28876, -0.05255, -0.70926,
 13:32:11.760,d3:c7:8d:a5:a9:b5, 2015-01-01 00:15:06.340, 0.572, -0.359, 0.982, 0.427, -1.404, 0.427, -19.649, -28.504, -90.698, -60.858, 4.704, -11.368,, 0.64084, -0.28876, -0.05255, -0.70926,
 13:32:11.760,d3:c7:8d:a5:a9:b5, 2015-01-01 00:15:06.340, 0.572, -0.362, 0.984, 0.977, -1.526, 0.244, -19.644, -28.515, -90.681, -60.858, 4.704, -11.368,, 0.64084, -0.28876, -0.05255, -0.70926,
 13:32:11.760,d3:c7:8d:a5:a9:b5, 2015-01-01 00:15:06.340, 0.577, -0.362, 0.984, 0.977, -1.526, 0.244, -19.644, -28.531, -90.665, -60.858, 4.704, -11.368,, 0.64084, -0.28876, -0.05255, -0.70926,
 13:32:11.790,d3:c7:8d:a5:a9:b5, 2015-01-01 00:15:06.340, 0.577, -0.353, 0.983, 0.854, -0.427, 0.244, -19.638, -28.531, -90.648, -60.858, 4.704, -11.368,, 0.64084, -0.28876, -0.05255, -0.70926,
 13:32:11.790,d3:c7:8d:a5:a9:b5, 2015-01-01 00:15:06.340, 0.572, -0.353, 0.983, 0.854, -0.427, 0.244, -19.633, -28.537, -90.637, -60.858, 4.704, -11.368,, 0.64084, -0.28876, -0.05255, -0.70926,
 13:32:11.790,d3:c7:8d:a5:a9:b5, 2015-01-01 00:15:06.340, 0.572, -0.359, 0.982, 0.366, 0.854, 0, -19.633, -28.531, -90.632, -60.858, 4.704, -11.368,, 0.64084, -0.28876, -0.05255, -0.70926,
 13:32:11.790,d3:c7:8d:a5:a9:b5, 2015-01-01 00:15:06.340, 0.562, -0.359, 0.982, 0.366, 0.854, 0, -19.627, -28.521, -90.632, -60.858, 4.704, -11.368,, 0.64084, -0.28876, -0.05255, -0.70926,
 13:32:11.851,d3:c7:8d:a5:a9:b5, 2015-01-01 00:15:06.700, 0.562, -0.354, 0.984, 0, 0.122, 0, -19.633, -28.521, -90.621, -60.858, 4.704, -11.368,, 0.64084, -0.28876, -0.05255, -0.70926,
 13:32:11.851,d3:c7:8d:a5:a9:b5, 2015-01-01 00:15:06.700, 0.569, -0.354, 0.984, 0, 0.122, 0, -19.633, -28.521, -90.615, -60.858, 4.704, -11.368,, 0.64084, -0.28876, -0.05255, -0.70926,
 13:32:11.851,d3:c7:8d:a5:a9:b5, 2015-01-01 00:15:06.700, 0.569, -0.358, 0.982, -0.427, -1.465, 0.061, -19.644, -28.531, -90.599, -60.858, 4.704, -11.368,, 0.64084, -0.28876, -0.05255, -0.70926,
 13:32:11.851,d3:c7:8d:a5:a9:b5, 2015-01-01 00:15:06.700, 0.582, -0.358, 0.982, -0.427, -1.465, 0.061, -19.649, -28.548, -90.588, -60.858, 4.704, -11.368,, 0.64084, -0.28876, -0.05255, -0.70926,
 13:32:11.880,d3:c7:8d:a5:a9:b5, 2015-01-01 00:15:06.700, 0.582, -0.362, 0.984, -0.244, -0.671, 0.061, -19.66, -28.553, -90.577, -60.858, 4.704, -11.368,, 0.64084, -0.28876, -0.05255, -0.70926,
 13:32:11.880,d3:c7:8d:a5:a9:b5, 2015-01-01 00:15:06.700, 0.58, -0.362, 0.984, -0.244, -0.671, 0.061, -19.666, -28.559, -90.566, -60.858, 4.704, -11.368,, 0.64084, -0.28876, -0.05255, -0.70926,
 13:32:11.880,d3:c7:8d:a5:a9:b5, 2015-01-01 00:15:06.700, 0.58, -0.359, 0.981, 0.305, 0.977, 0.244, -19.66, -28.553, -90.56, -60.858, 4.704, -11.368,, 0.64084, -0.28876, -0.05255, -0.70926,
 13:32:11.880,d3:c7:8d:a5:a9:b5, 2015-01-01 00:15:06.700, 0.567, -0.359, 0.981, 0.305, 0.977, 0.244, -19.66, -28.542, -90.555, -60.858, 4.704, -11.368,, 0.64084, -0.28876, -0.05255, -0.70926,
 13:32:11.910,d3:c7:8d:a5:a9:b5, 2015-01-01 00:15:06.700, 0.567, -0.353, 0.984, 0.122, 0.793, 0.488, -19.66, -28.531, -90.544, -60.858, 4.704, -11.368,, 0.64084, -0.28876, -0.05255, -0.70926,
 13:32:11.910,d3:c7:8d:a5:a9:b5, 2015-01-01 00:15:06.700, 0.57, -0.353, 0.984, 0.122, 0.793, 0.488, -19.666, -28.526, -90.533, -60.858, 4.704, -11.368,, 0.64084, -0.28876, -0.05255, -0.70926,
 13:32:11.910,d3:c7:8d:a5:a9:b5, 2015-01-01 00:15:06.700, 0.568, -0.359, 0.982, -0.122, 0, 0.244, -19.671, -28.526, -90.527, -60.858, 4.704, -11.368,, 0.64084, -0.28876, -0.05255, -0.70926,
 13:32:11.910,d3:c7:8d:a5:a9:b5, 2015-01-01 00:15:06.700, 0.568, -0.357, 0.983, -0.061, -0.244, 0, -19.671, -28.526, -90.516, -60.858, 4.704, -11.368,, 0.64084, -0.28876, -0.05255, -0.70926,
 13:32:11.971,d3:c7:8d:a5:a9:b5, 2015-01-01 00:15:06.700, 0.568, -0.357, 0.983, -0.061, -0.244, 0, -19.677, -28.531, -90.511, -60.858, 4.704, -11.368,, 0.64084, -0.28876, -0.05255, -0.70926,
 13:32:11.971,d3:c7:8d:a5:a9:b5, 2015-01-01 00:15:06.700, 0.568, -0.356, 0.985, -0.366, -0.183, 0, -19.682, -28.531, -90.5, -60.858, 4.704, -11.368,, 0.64084, -0.28876, -0.05255, -0.70926,
 13:32:11.971,d3:c7:8d:a5:a9:b5, 2015-01-01 00:15:06.700, 0.568, -0.356, 0.985, -0.366, -0.183, 0, -19.688, -28.537, -90.494, -60.858, 4.704, -11.368,, 0.64084, -0.28876, -0.05255, -0.70926,
 13:32:11.971,d3:c7:8d:a5:a9:b5, 2015-01-01 00:15:06.700, 0.568, -0.358, 0.984, -0.916, -0.61, 0.183, -19.693, -28.537, -90.483, -60.858, 4.704, -11.368,, 0.64084, -0.28876, -0.05255, -0.70926,
 13:32:12.001,d3:c7:8d:a5:a9:b5, 2015-01-01 00:15:06.700, 0.573, -0.358, 0.984, -0.916, -0.61, 0.183, -19.709, -28.542, -90.472, -60.858, 4.704, -11.368,, 0.64084, -0.28876, -0.05255, -0.70926,
 13:32:12.001,d3:c7:8d:a5:a9:b5, 2015-01-01 00:15:06.700, 0.573, -0.36, 0.985, -0.366, -0.549, -0.183, -19.715, -28.548, -90.461, -60.858, 4.704, -11.368,, 0.64084, -0.28876, -0.05255, -0.70926,
 13:32:12.001,d3:c7:8d:a5:a9:b5, 2015-01-01 00:15:06.700, 0.565, -0.36, 0.985, -0.366, -0.549, -0.183, -19.72, -28.553, -90.456, -60.858, 4.704, -11.368,, 0.64084, -0.28876, -0.05255, -0.70926,
 13:32:12.001,d3:c7:8d:a5:a9:b5, 2015-01-01 00:15:06.700, 0.565, -0.357, 0.984, -0.244, -0.732, -0.305, -19.726, -28.564, -90.45, -60.858, 4.704, -11.368,, 0.64084, -0.28876, -0.05255, -0.70926,
 13:32:12.061,d3:c7:8d:a5:a9:b5, 2015-01-01 00:15:06.700, 0.567, -0.357, 0.984, -0.244, -0.732, -0.305, -19.731, -28.57, -90.439, -60.858, 4.802, -11.466,, 0.64084, -0.28876, -0.05255, -0.70926,
 13:32:12.061,d3:c7:8d:a5:a9:b5, 2015-01-01 00:15:06.700, 0.567, -0.358, 0.988, -0.854, -1.465, -0.305, -19.737, -28.581, -90.434, -60.858, 4.802, -11.466,, 0.64084, -0.28876, -0.05255, -0.70926,
 13:32:12.061,d3:c7:8d:a5:a9:b5, 2015-01-01 00:15:06.700, 0.584, -0.358, 0.988, -0.854, -1.465, -0.305, -19.748, -28.597, -90.423, -60.858, 4.802, -11.466,, 0.64084, -0.28876, -0.05255, -0.70926,
 13:32:12.061,d3:c7:8d:a5:a9:b5, 2015-01-01 00:15:06.700, 0.584, -0.363, 0.982, -0.488, 0.244, -0.671, -19.753, -28.603, -90.423, -60.858, 4.802, -11.466,, 0.64084, -0.28876, -0.05255, -0.70926,
 13:32:12.089,d3:c7:8d:a5:a9:b5, 2015-01-01 00:15:06.700, 0.575, -0.363, 0.982, -0.488, 0.244, -0.671, -19.759, -28.603, -90.423, -60.858, 4.802, -11.466,, 0.64236, -0.28986, -0.05341, -0.70737,
 13:32:12.089,d3:c7:8d:a5:a9:b5, 2015-01-01 00:15:06.700, 0.575, -0.359, 0.981, 0.061, 1.587, -0.488, -19.759, -28.597, -90.428, -60.858, 4.802, -11.466,, 0.64236, -0.28986, -0.05341, -0.70737,
 13:32:12.089,d3:c7:8d:a5:a9:b5, 2015-01-01 00:15:06.700, 0.571, -0.359, 0.981, 0.061, 1.587, -0.488, -19.753, -28.581, -90.434, -60.858, 4.802, -11.466,, 0.64236, -0.28986, -0.05341, -0.70737,
 13:32:12.089,d3:c7:8d:a5:a9:b5, 2015-01-01 00:15:06.700, 0.571, -0.36, 0.98, -0.061, 1.099, -0.305, -19.753, -28.57, -90.434, -60.858, 4.802, -11.466,, 0.64236, -0.28986, -0.05341, -0.70737,
 13:32:12.122,d3:c7:8d:a5:a9:b5, 2015-01-01 00:15:06.700, 0.571, -0.36, 0.98, -0.061, 1.099, -0.305, -19.748, -28.564, -90.434, -60.858, 4.802, -11.466,, 0.64236, -0.28986, -0.05341, -0.70737,
 13:32:12.122,d3:c7:8d:a5:a9:b5, 2015-01-01 00:15:06.700, 0.571, -0.358, 0.981, 0.244, 0.427, -0.122, -19.748, -28.559, -90.434, -60.858, 4.802, -11.466,, 0.64236, -0.28986, -0.05341, -0.70737,
 13:32:12.122,d3:c7:8d:a5:a9:b5, 2015-01-01 00:15:06.700, 0.57, -0.358, 0.981, 0.244, 0.427, -0.122, -19.748, -28.553, -90.434, -60.858, 4.802, -11.466,, 0.64236, -0.28986, -0.05341, -0.70737,
 13:32:12.122,d3:c7:8d:a5:a9:b5, 2015-01-01 00:15:06.700, 0.57, -0.358, 0.983, 0.305, 0.488, 0, -19.742, -28.553, -90.428, -60.858, 4.802, -11.466,, 0.64236, -0.28986, -0.05341, -0.70737,
 13:32:12.179,d3:c7:8d:a5:a9:b5, 2015-01-01 00:15:07.025, 0.573, -0.358, 0.983, 0.305, 0.488, 0, -19.742, -28.548, -90.423, -60.858, 4.802, -11.466,, 0.64236, -0.28986, -0.05341, -0.70737,
 13:32:12.179,d3:c7:8d:a5:a9:b5, 2015-01-01 00:15:07.025, 0.573, -0.359, 0.986, 0.244, 0.488, 0, -19.742, -28.542, -90.417, -60.858, 4.802, -11.466,, 0.64236, -0.28986, -0.05341, -0.70737,
 13:32:12.179,d3:c7:8d:a5:a9:b5, 2015-01-01 00:15:07.025, 0.566, -0.359, 0.986, 0.244, 0.488, 0, -19.737, -28.542, -90.417, -60.858, 4.802, -11.466,, 0.64236, -0.28986, -0.05341, -0.70737,
 13:32:12.179,d3:c7:8d:a5:a9:b5, 2015-01-01 00:15:07.025, 0.566, -0.357, 0.986, 0.122, 0.977, 0.122, -19.737, -28.531, -90.412, -60.858, 4.802, -11.466,, 0.64236, -0.28986, -0.05341, -0.70737,
 13:32:12.209,d3:c7:8d:a5:a9:b5, 2015-01-01 00:15:07.025, 0.563, -0.357, 0.986, 0.122, 0.977, 0.122, -19.737, -28.526, -90.406, -60.858, 4.802, -11.466,, 0.64236, -0.28986, -0.05341, -0.70737,
 13:32:12.209,d3:c7:8d:a5:a9:b5, 2015-01-01 00:15:07.025, 0.563, -0.357, 0.982, -0.122, 0.122, 0.244, -19.737, -28.521, -90.401, -60.858, 4.802, -11.466,, 0.64236, -0.28986, -0.05341, -0.70737,
 13:32:12.210,d3:c7:8d:a5:a9:b5, 2015-01-01 00:15:07.025, 0.568, -0.357, 0.982, -0.122, 0.122, 0.244, -19.742, -28.515, -90.396, -60.858, 4.802, -11.466,, 0.64236, -0.28986, -0.05341, -0.70737,
 13:32:12.210,d3:c7:8d:a5:a9:b5, 2015-01-01 00:15:07.025, 0.568, -0.359, 0.985, -0.183, -0.366, 0.305, -19.748, -28.521, -90.385, -60.858, 4.802, -11.466,, 0.64236, -0.28986, -0.05341, -0.70737,
 13:32:12.241,d3:c7:8d:a5:a9:b5, 2015-01-01 00:15:07.025, 0.576, -0.359, 0.985, -0.183, -0.366, 0.305, -19.753, -28.521, -90.374, -60.858, 4.802, -11.466,, 0.64236, -0.28986, -0.05341, -0.70737,
 13:32:12.241,d3:c7:8d:a5:a9:b5, 2015-01-01 00:15:07.025, 0.576, -0.361, 0.984, 0, -0.061, 0.122, -19.759, -28.521, -90.363, -60.858, 4.802, -11.466,, 0.64236, -0.28986, -0.05341, -0.70737,
 13:32:12.241,d3:c7:8d:a5:a9:b5, 2015-01-01 00:15:07.025, 0.568, -0.361, 0.984, 0, -0.061, 0.122, -19.759, -28.521, -90.357, -60.858, 4.802, -11.466,, 0.64236, -0.28986, -0.05341, -0.70737,
 13:32:12.241,d3:c7:8d:a5:a9:b5, 2015-01-01 00:15:07.025, 0.568, -0.359, 0.982, 0.183, 0.61, 0.183, -19.759, -28.521, -90.352, -60.858, 4.802, -11.466,, 0.64236, -0.28986, -0.05341, -0.70737,
 13:32:12.301,d3:c7:8d:a5:a9:b5, 2015-01-01 00:15:07.025, 0.568, -0.359, 0.982, 0.183, 0.61, 0.183, -19.759, -28.515, -90.346, -60.858, 4.802, -11.466,, 0.64236, -0.28986, -0.05341, -0.70737,
 13:32:12.301,d3:c7:8d:a5:a9:b5, 2015-01-01 00:15:07.025, 0.568, -0.357, 0.984, 0, -0.061, 0.183, -19.764, -28.51, -90.335, -60.858, 4.802, -11.466,, 0.64236, -0.28986, -0.05341, -0.70737,
 13:32:12.301,d3:c7:8d:a5:a9:b5, 2015-01-01 00:15:07.025, 0.573, -0.357, 0.984, 0, -0.061, 0.183, -19.764, -28.51, -90.33, -60.858, 4.802, -11.466,, 0.64236, -0.28986, -0.05341, -0.70737,
 13:32:12.301,d3:c7:8d:a5:a9:b5, 2015-01-01 00:15:07.025, 0.573, -0.36, 0.983, 0.061, 0.366, 0.061, -19.764, -28.51, -90.324, -60.858, 4.802, -11.466,, 0.64236, -0.28986, -0.05341, -0.70737,
 13:32:12.330,d3:c7:8d:a5:a9:b5, 2015-01-01 00:15:07.025, 0.568, -0.36, 0.983, 0.061, 0.366, 0.061, -19.764, -28.504, -90.319, -60.858, 4.802, -11.466,, 0.64236, -0.28986, -0.05341, -0.70737,
 13:32:12.330,d3:c7:8d:a5:a9:b5, 2015-01-01 00:15:07.025, 0.568, -0.357, 0.983, 0.122, 0, 0.061, -19.77, -28.504, -90.313, -60.858, 4.802, -11.466,, 0.64236, -0.28986, -0.05341, -0.70737,
 13:32:12.330,d3:c7:8d:a5:a9:b5, 2015-01-01 00:15:07.025, 0.568, -0.357, 0.983, 0.122, 0, 0.061, -19.77, -28.504, -90.308, -60.858, 4.802, -11.466,, 0.64236, -0.28986, -0.05341, -0.70737,
 13:32:12.330,d3:c7:8d:a5:a9:b5, 2015-01-01 00:15:07.025, 0.568, -0.359, 0.984, 0.061, -0.061, 0.061, -19.77, -28.504, -90.302, -60.858, 4.802, -11.466,, 0.64236, -0.28986, -0.05341, -0.70737,
 13:32:12.360,d3:c7:8d:a5:a9:b5, 2015-01-01 00:15:07.025, 0.567, -0.359, 0.984, 0.061, -0.061, 0.061, -19.77, -28.504, -90.297, -60.760, 4.606, -11.466,, 0.64236, -0.28986, -0.05341, -0.70737,
 13:32:12.360,d3:c7:8d:a5:a9:b5, 2015-01-01 00:15:07.025, 0.567, -0.358, 0.985, 0.183, -0.61, 0, -19.77, -28.51, -90.291, -60.760, 4.606, -11.466,, 0.64236, -0.28986, -0.05341, -0.70737,
 13:32:12.360,d3:c7:8d:a5:a9:b5, 2015-01-01 00:15:07.025, 0.57, -0.358, 0.985, 0.183, -0.61, 0, -19.775, -28.515, -90.28, -60.760, 4.606, -11.466,, 0.64236, -0.28986, -0.05341, -0.70737,
 13:32:12.360,d3:c7:8d:a5:a9:b5, 2015-01-01 00:15:07.025, 0.57, -0.359, 0.985, 0.122, -0.488, 0, -19.775, -28.521, -90.275, -60.760, 4.606, -11.466,, 0.64236, -0.28986, -0.05341, -0.70737,
 13:32:12.420,d3:c7:8d:a5:a9:b5, 2015-01-01 00:15:07.025, 0.562, -0.359, 0.985, 0.122, -0.488, 0, -19.775, -28.526, -90.269, -60.760, 4.606, -11.466,, 0.64236, -0.28986, -0.05341, -0.70737,
 13:32:12.420,d3:c7:8d:a5:a9:b5, 2015-01-01 00:15:07.025, 0.562, -0.356, 0.985, 0.061, -0.854, -0.061, -19.775, -28.531, -90.264, -60.760, 4.606, -11.466,, 0.64236, -0.28986, -0.05341, -0.70737,
 13:32:12.420,d3:c7:8d:a5:a9:b5, 2015-01-01 00:15:07.025, 0.568, -0.356, 0.985, 0.061, -0.854, -0.061, -19.781, -28.542, -90.253, -60.760, 4.606, -11.466,, 0.64236, -0.28986, -0.05341, -0.70737,
 13:32:12.420,d3:c7:8d:a5:a9:b5, 2015-01-01 00:15:07.025, 0.568, -0.358, 0.985, -0.488, -1.526, 0.061, -19.786, -28.553, -90.242, -60.760, 4.606, -11.466,, 0.64236, -0.28986, -0.05341, -0.70737,
 13:32:12.450,d3:c7:8d:a5:a9:b5, 2015-01-01 00:15:07.025, 0.579, -0.358, 0.985, -0.488, -1.526, 0.061, -19.797, -28.57, -90.231, -60.760, 4.606, -11.466,, 0.64352, -0.28952, -0.05331, -0.70648,
 13:32:12.450,d3:c7:8d:a5:a9:b5, 2015-01-01 00:15:07.025, 0.579, -0.362, 0.984, -0.305, -0.793, 0.061, -19.803, -28.575, -90.225, -60.760, 4.606, -11.466,, 0.64352, -0.28952, -0.05331, -0.70648,
 13:32:12.450,d3:c7:8d:a5:a9:b5, 2015-01-01 00:15:07.025, 0.571, -0.362, 0.984, -0.305, -0.793, 0.061, -19.808, -28.581, -90.214, -60.760, 4.606, -11.466,, 0.64352, -0.28952, -0.05331, -0.70648,
 13:32:12.450,d3:c7:8d:a5:a9:b5, 2015-01-01 00:15:07.025, 0.571, -0.36, 0.982, 0.244, -0.061, -0.122, -19.808, -28.581, -90.214, -60.760, 4.606, -11.466,, 0.64352, -0.28952, -0.05331, -0.70648,
 13:32:12.481,d3:c7:8d:a5:a9:b5, 2015-01-01 00:15:07.025, 0.565, -0.36, 0.982, 0.244, -0.061, -0.122, -19.808, -28.581, -90.209, -60.760, 4.606, -11.466,, 0.64352, -0.28952, -0.05331, -0.70648,
 13:32:12.481,d3:c7:8d:a5:a9:b5, 2015-01-01 00:15:07.025, 0.565, -0.358, 0.984, 0.183, -0.793, -0.183, -19.808, -28.592, -90.203, -60.760, 4.606, -11.466,, 0.64352, -0.28952, -0.05331, -0.70648,
 13:32:12.481,d3:c7:8d:a5:a9:b5, 2015-01-01 00:15:07.025, 0.571, -0.358, 0.984, 0.183, -0.793, -0.183, -19.808, -28.597, -90.198, -60.760, 4.606, -11.466,, 0.64352, -0.28952, -0.05331, -0.70648,
 13:32:12.481,d3:c7:8d:a5:a9:b5, 2015-01-01 00:15:07.025, 0.571, -0.358, 0.984, 0, -1.587, -0.244, -19.808, -28.614, -90.187, -60.760, 4.606, -11.466,, 0.64352, -0.28952, -0.05331, -0.70648,
 13:32:12.540,d3:c7:8d:a5:a9:b5, 2015-01-01 00:15:07.385, 0.578, -0.358, 0.984, 0, -1.587, -0.244, -19.814, -28.63, -90.181, -60.760, 4.606, -11.466,, 0.64352, -0.28952, -0.05331, -0.70648,
 13:32:12.540,d3:c7:8d:a5:a9:b5, 2015-01-01 00:15:07.385, 0.578, -0.358, 0.982, -0.061, -1.282, -0.122, -19.819, -28.641, -90.17, -60.760, 4.606, -11.466,, 0.64352, -0.28952, -0.05331, -0.70648,
 13:32:12.540,d3:c7:8d:a5:a9:b5, 2015-01-01 00:15:07.385, 0.577, -0.358, 0.982, -0.061, -1.282, -0.122, -19.819, -28.652, -90.165, -60.760, 4.606, -11.466,, 0.64352, -0.28952, -0.05331, -0.70648,
 13:32:12.540,d3:c7:8d:a5:a9:b5, 2015-01-01 00:15:07.385, 0.577, -0.36, 0.982, 0, 0.061, -0.061, -19.825, -28.652, -90.159, -60.760, 4.606, -11.466,, 0.64352, -0.28952, -0.05331, -0.70648,
 13:32:12.569,d3:c7:8d:a5:a9:b5, 2015-01-01 00:15:07.385, 0.57, -0.36, 0.982, 0, 0.061, -0.061, -19.825, -28.652, -90.159, -60.760, 4.606, -11.466,, 0.64352, -0.28952, -0.05331, -0.70648,
 13:32:12.569,d3:c7:8d:a5:a9:b5, 2015-01-01 00:15:07.385, 0.57, -0.358, 0.983, 0, 0.488, -0.061, -19.825, -28.647, -90.154, -60.760, 4.606, -11.466,, 0.64352, -0.28952, -0.05331, -0.70648,
 13:32:12.569,d3:c7:8d:a5:a9:b5, 2015-01-01 00:15:07.385, 0.567, -0.358, 0.983, 0, 0.488, -0.061, -19.825, -28.641, -90.154, -60.760, 4.606, -11.466,, 0.64352, -0.28952, -0.05331, -0.70648,
 13:32:12.569,d3:c7:8d:a5:a9:b5, 2015-01-01 00:15:07.385, 0.567, -0.359, 0.984, 0, 0.122, -0.183, -19.825, -28.641, -90.154, -60.760, 4.606, -11.466,, 0.64352, -0.28952, -0.05331, -0.70648,
 13:32:12.599,d3:c7:8d:a5:a9:b5, 2015-01-01 00:15:07.385, 0.566, -0.359, 0.984, 0, 0.122, -0.183, -19.825, -28.641, -90.148, -60.760, 4.606, -11.466,, 0.64352, -0.28952, -0.05331, -0.70648,
 13:32:12.599,d3:c7:8d:a5:a9:b5, 2015-01-01 00:15:07.385, 0.566, -0.358, 0.984, 0, -0.488, -0.122, -19.825, -28.647, -90.143, -60.760, 4.606, -11.466,, 0.64352, -0.28952, -0.05331, -0.70648,
 13:32:12.599,d3:c7:8d:a5:a9:b5, 2015-01-01 00:15:07.385, 0.571, -0.358, 0.984, 0, -0.488, -0.122, -19.825, -28.652, -90.143, -60.760, 4.606, -11.466,, 0.64352, -0.28952, -0.05331, -0.70648,
 13:32:12.599,d3:c7:8d:a5:a9:b5, 2015-01-01 00:15:07.385, 0.571, -0.358, 0.983, -0.122, -0.61, -0.122, -19.83, -28.658, -90.137, -60.760, 4.606, -11.466,, 0.64352, -0.28952, -0.05331, -0.70648,
 13:32:12.660,d3:c7:8d:a5:a9:b5, 2015-01-01 00:15:07.385, 0.576, -0.358, 0.983, -0.122, -0.61, -0.122, -19.836, -28.663, -90.132, -60.760, 4.606, -11.466,, 0.64352, -0.28952, -0.05331, -0.70648,
 13:32:12.660,d3:c7:8d:a5:a9:b5, 2015-01-01 00:15:07.385, 0.576, -0.358, 0.983, -0.061, -0.305, -0.183, -19.836, -28.663, -90.126, -60.760, 4.606, -11.466,, 0.64352, -0.28952, -0.05331, -0.70648,
 13:32:12.660,d3:c7:8d:a5:a9:b5, 2015-01-01 00:15:07.385, 0.571, -0.358, 0.983, -0.061, -0.305, -0.183, -19.836, -28.669, -90.121, -60.760, 4.606, -11.466,, 0.64352, -0.28952, -0.05331, -0.70648,
 13:32:12.660,d3:c7:8d:a5:a9:b5, 2015-01-01 00:15:07.385, 0.571, -0.358, 0.982, 0.061, 0.061, -0.122, -19.836, -28.669, -90.121, -60.760, 4.606, -11.466,, 0.64352, -0.28952, -0.05331, -0.70648,
 13:32:12.690,d3:c7:8d:a5:a9:b5, 2015-01-01 00:15:07.385, 0.568, -0.358, 0.982, 0.061, 0.061, -0.122, -19.836, -28.669, -90.115, -60.760, 4.606, -11.466,, 0.64352, -0.28952, -0.05331, -0.70648,
 13:32:12.690,d3:c7:8d:a5:a9:b5, 2015-01-01 00:15:07.385, 0.568, -0.358, 0.984, -0.244, -0.732, 0, -19.841, -28.674, -90.11, -60.760, 4.606, -11.466,, 0.64352, -0.28952, -0.05331, -0.70648,
 13:32:12.690,d3:c7:8d:a5:a9:b5, 2015-01-01 00:15:07.385, 0.58, -0.358, 0.984, -0.244, -0.732, 0, -19.847, -28.68, -90.099, -60.760, 4.606, -11.466,, 0.64352, -0.28952, -0.05331, -0.70648,
 13:32:12.690,d3:c7:8d:a5:a9:b5, 2015-01-01 00:15:07.385, 0.58, -0.361, 0.982, -0.183, -0.366, -0.061, -19.847, -28.685, -90.093, -60.760, 4.606, -11.466,, 0.64352, -0.28952, -0.05331, -0.70648,
 13:32:12.720,d3:c7:8d:a5:a9:b5, 2015-01-01 00:15:07.385, 0.575, -0.361, 0.982, -0.183, -0.366, -0.061, -19.852, -28.691, -90.088, -60.858, 4.802, -11.368,, 0.64352, -0.28952, -0.05331, -0.70648,
 13:32:12.720,d3:c7:8d:a5:a9:b5, 2015-01-01 00:15:07.385, 0.575, -0.359, 0.983, 0.122, 0.427, -0.122, -19.852, -28.685, -90.088, -60.858, 4.802, -11.368,, 0.64352, -0.28952, -0.05331, -0.70648,
 13:32:12.720,d3:c7:8d:a5:a9:b5, 2015-01-01 00:15:07.385, 0.567, -0.359, 0.983, 0.122, 0.427, -0.122, -19.852, -28.68, -90.082, -60.858, 4.802, -11.368,, 0.64352, -0.28952, -0.05331, -0.70648,
 13:32:12.720,d3:c7:8d:a5:a9:b5, 2015-01-01 00:15:07.385, 0.567, -0.358, 0.983, 0.122, 0.061, 0, -19.852, -28.68, -90.082, -60.858, 4.802, -11.368,, 0.64352, -0.28952, -0.05331, -0.70648,
 13:32:12.780,d3:c7:8d:a5:a9:b5, 2015-01-01 00:15:07.385, 0.568, -0.358, 0.983, 0.122, 0.061, 0, -19.852, -28.68, -90.077, -60.858, 4.802, -11.368,, 0.64352, -0.28952, -0.05331, -0.70648,
 13:32:12.780,d3:c7:8d:a5:a9:b5, 2015-01-01 00:15:07.385, 0.568, -0.358, 0.984, -0.061, -0.549, 0, -19.852, -28.685, -90.071, -60.858, 4.802, -11.368,, 0.64352, -0.28952, -0.05331, -0.70648,
 13:32:12.780,d3:c7:8d:a5:a9:b5, 2015-01-01 00:15:07.385, 0.569, -0.358, 0.984, -0.061, -0.549, 0, -19.858, -28.691, -90.066, -60.858, 4.802, -11.368,, 0.64352, -0.28952, -0.05331, -0.70648,
 13:32:12.780,d3:c7:8d:a5:a9:b5, 2015-01-01 00:15:07.385, 0.569, -0.359, 0.984, -0.122, -0.977, 0, -19.858, -28.696, -90.055, -60.858, 4.802, -11.368,, 0.64352, -0.28952, -0.05331, -0.70648,
 13:32:12.810,d3:c7:8d:a5:a9:b5, 2015-01-01 00:15:07.385, 0.575, -0.359, 0.984, -0.122, -0.977, 0, -19.863, -28.707, -90.049, -60.858, 4.802, -11.368,, 0.6441, -0.29068, -0.05426, -0.70538,
 13:32:12.810,d3:c7:8d:a5:a9:b5, 2015-01-01 00:15:07.385, 0.575, -0.36, 0.983, -0.244, -0.549, 0, -19.869, -28.713, -90.044, -60.858, 4.802, -11.368,, 0.6441, -0.29068, -0.05426, -0.70538,
 13:32:12.810,d3:c7:8d:a5:a9:b5, 2015-01-01 00:15:07.385, 0.575, -0.36, 0.983, -0.244, -0.549, 0, -19.874, -28.718, -90.033, -60.858, 4.802, -11.368,, 0.6441, -0.29068, -0.05426, -0.70538,
 13:32:12.810,d3:c7:8d:a5:a9:b5, 2015-01-01 00:15:07.385, 0.573, -0.36, 0.983, 0.183, -0.183, 0, -19.874, -28.718, -90.027, -60.858, 4.802, -11.368,, 0.6441, -0.29068, -0.05426, -0.70538,
 13:32:12.841,d3:c7:8d:a5:a9:b5, 2015-01-01 00:15:07.385, 0.573, -0.357, 0.983, 0, 0, 0, -19.874, -28.718, -90.027, -60.858, 4.802, -11.368,, 0.6441, -0.29068, -0.05426, -0.70538,
 13:32:12.841,d3:c7:8d:a5:a9:b5, 2015-01-01 00:15:07.385, 0.57, -0.357, 0.983, 0, 0, 0, -19.874, -28.718, -90.022, -60.858, 4.802, -11.368,, 0.6441, -0.29068, -0.05426, -0.70538,
 13:32:12.841,d3:c7:8d:a5:a9:b5, 2015-01-01 00:15:07.385, 0.57, -0.359, 0.982, 0.183, -0.061, 0, -19.874, -28.718, -90.016, -60.858, 4.802, -11.368,, 0.6441, -0.29068, -0.05426, -0.70538,
 13:32:12.841,d3:c7:8d:a5:a9:b5, 2015-01-01 00:15:07.385, 0.57, -0.359, 0.982, 0.183, -0.061, 0, -19.874, -28.718, -90.011, -60.858, 4.802, -11.368,, 0.6441, -0.29068, -0.05426, -0.70538,
 13:32:12.899,d3:c7:8d:a5:a9:b5, 2015-01-01 00:15:07.740, 0.57, -0.357, 0.984, -0.244, -0.61, 0, -19.874, -28.718, -90.005, -60.858, 4.802, -11.368,, 0.6441, -0.29068, -0.05426, -0.70538,
 13:32:12.899,d3:c7:8d:a5:a9:b5, 2015-01-01 00:15:07.740, 0.578, -0.357, 0.984, -0.244, -0.61, 0, -19.88, -28.724, -90, -60.858, 4.802, -11.368,, 0.6441, -0.29068, -0.05426, -0.70538,
 13:32:12.899,d3:c7:8d:a5:a9:b5, 2015-01-01 00:15:07.740, 0.578, -0.36, 0.981, -0.122, -0.305, 0, -19.885, -28.729, -89.989, -60.858, 4.802, -11.368,, 0.6441, -0.29068, -0.05426, -0.70538,
 13:32:12.899,d3:c7:8d:a5:a9:b5, 2015-01-01 00:15:07.740, 0.574, -0.36, 0.981, -0.122, -0.305, 0, -19.885, -28.729, -89.984, -60.858, 4.802, -11.368,, 0.6441, -0.29068, -0.05426, -0.70538,
 13:32:12.960,d3:c7:8d:a5:a9:b5, 2015-01-01 00:15:07.740, 0.574, -0.359, 0.985, -0.061, 0.061, 0, -19.891, -28.735, -89.978, -60.858, 4.802, -11.368,, 0.6441, -0.29068, -0.05426, -0.70538,
 13:32:12.960,d3:c7:8d:a5:a9:b5, 2015-01-01 00:15:07.740, 0.568, -0.359, 0.985, -0.061, 0.061, 0, -19.891, -28.735, -89.978, -60.858, 4.802, -11.368,, 0.6441, -0.29068, -0.05426, -0.70538,
 13:32:12.960,d3:c7:8d:a5:a9:b5, 2015-01-01 00:15:07.740, 0.568, -0.358, 0.983, 0, 0, 0, -19.891, -28.729, -89.973, -60.858, 4.802, -11.368,, 0.6441, -0.29068, -0.05426, -0.70538,
 13:32:12.960,d3:c7:8d:a5:a9:b5, 2015-01-01 00:15:07.740, 0.572, -0.358, 0.983, 0, 0, 0, -19.891, -28.729, -89.967, -60.858, 4.802, -11.368,, 0.6441, -0.29068, -0.05426, -0.70538,
 13:32:12.960,d3:c7:8d:a5:a9:b5, 2015-01-01 00:15:07.740, 0.572, -0.359, 0.982, -0.061, -0.366, 0, -19.896, -28.735, -89.962, -60.858, 4.802, -11.368,, 0.6441, -0.29068, -0.05426, -0.70538,
 13:32:12.960,d3:c7:8d:a5:a9:b5, 2015-01-01 00:15:07.740, 0.574, -0.359, 0.982, -0.061, -0.366, 0, -19.896, -28.735, -89.956, -60.858, 4.802, -11.368,, 0.6441, -0.29068, -0.05426, -0.70538,
 13:32:12.960,d3:c7:8d:a5:a9:b5, 2015-01-01 00:15:07.740, 0.574, -0.359, 0.983, 0.061, -0.183, 0, -19.896, -28.74, -89.951, -60.858, 4.802, -11.368,, 0.6441, -0.29068, -0.05426, -0.70538,
 13:32:12.960,d3:c7:8d:a5:a9:b5, 2015-01-01 00:15:07.740, 0.572, -0.359, 0.983, 0.061, -0.183, 0, -19.896, -28.74, -89.945, -60.858, 4.802, -11.368,, 0.6441, -0.29068, -0.05426, -0.70538,
 13:32:13.021,d3:c7:8d:a5:a9:b5, 2015-01-01 00:15:07.740, 0.572, -0.357, 0.984, 0, 0, 0, -19.902, -28.74, -89.945, -60.858, 4.802, -11.368,, 0.6441, -0.29068, -0.05426, -0.70538,
 13:32:13.021,d3:c7:8d:a5:a9:b5, 2015-01-01 00:15:07.740, 0.573, -0.357, 0.984, 0, 0, 0, -19.902, -28.74, -89.94, -60.858, 4.802, -11.368,, 0.6441, -0.29068, -0.05426, -0.70538,
 13:32:13.021,d3:c7:8d:a5:a9:b5, 2015-01-01 00:15:07.740, 0.573, -0.359, 0.983, -0.061, -0.061, 0, -19.902, -28.74, -89.934, -60.858, 4.802, -11.368,, 0.6441, -0.29068, -0.05426, -0.70538,
 13:32:13.021,d3:c7:8d:a5:a9:b5, 2015-01-01 00:15:07.740, 0.574, -0.359, 0.983, -0.061, -0.061, 0, -19.902, -28.74, -89.929, -60.858, 4.802, -11.368,, 0.6441, -0.29068, -0.05426, -0.70538,
 13:32:13.050,d3:c7:8d:a5:a9:b5, 2015-01-01 00:15:07.740, 0.574, -0.359, 0.982, 0, 0.061, 0, -19.902, -28.74, -89.929, -60.858, 4.802, -11.368,, 0.6441, -0.29068, -0.05426, -0.70538,
 13:32:13.050,d3:c7:8d:a5:a9:b5, 2015-01-01 00:15:07.740, 0.571, -0.359, 0.982, 0, 0.061, 0, -19.907, -28.74, -89.923, -60.858, 4.802, -11.368,, 0.6441, -0.29068, -0.05426, -0.70538,
 13:32:13.050,d3:c7:8d:a5:a9:b5, 2015-01-01 00:15:07.740, 0.571, -0.358, 0.983, -0.061, -0.244, 0, -19.907, -28.74, -89.918, -60.858, 4.802, -11.368,, 0.6441, -0.29068, -0.05426, -0.70538,
 13:32:13.050,d3:c7:8d:a5:a9:b5, 2015-01-01 00:15:07.740, 0.574, -0.358, 0.983, -0.061, -0.244, 0, -19.907, -28.74, -89.912, -60.858, 4.802, -11.368,, 0.6441, -0.29068, -0.05426, -0.70538,
 13:32:13.080,d3:c7:8d:a5:a9:b5, 2015-01-01 00:15:07.740, 0.574, -0.361, 0.981, 0.061, -0.549, 0, -19.907, -28.746, -89.907, -60.956, 4.802, -11.368,, 0.6441, -0.29068, -0.05426, -0.70538,
 13:32:13.080,d3:c7:8d:a5:a9:b5, 2015-01-01 00:15:07.740, 0.576, -0.361, 0.981, 0.061, -0.549, 0, -19.913, -28.751, -89.901, -60.956, 4.802, -11.368,, 0.6441, -0.29068, -0.05426, -0.70538,
 13:32:13.080,d3:c7:8d:a5:a9:b5, 2015-01-01 00:15:07.740, 0.576, -0.359, 0.983, 0.244, -0.122, 0, -19.913, -28.751, -89.896, -60.956, 4.802, -11.368,, 0.6441, -0.29068, -0.05426, -0.70538,
 13:32:13.080,d3:c7:8d:a5:a9:b5, 2015-01-01 00:15:07.740, 0.572, -0.359, 0.983, 0.244, -0.122, 0, -19.913, -28.751, -89.896, -60.956, 4.802, -11.368,, 0.6441, -0.29068, -0.05426, -0.70538,
 13:32:13.140,d3:c7:8d:a5:a9:b5, 2015-01-01 00:15:07.740, 0.572, -0.359, 0.984, 0.122, 0.122, 0, -19.907, -28.751, -89.89, -60.956, 4.802, -11.368,, 0.6441, -0.29068, -0.05426, -0.70538,
 13:32:13.140,d3:c7:8d:a5:a9:b5, 2015-01-01 00:15:07.740, 0.573, -0.359, 0.984, 0.122, 0.122, 0, -19.907, -28.751, -89.89, -60.956, 4.802, -11.368,, 0.6441, -0.29068, -0.05426, -0.70538,
 13:32:13.140,d3:c7:8d:a5:a9:b5, 2015-01-01 00:15:07.740, 0.573, -0.358, 0.982, 0, 0.122, 0, -19.907, -28.751, -89.885, -60.956, 4.802, -11.368,, 0.6441, -0.29068, -0.05426, -0.70538,
 13:32:13.140,d3:c7:8d:a5:a9:b5, 2015-01-01 00:15:07.740, 0.569, -0.358, 0.982, 0, 0.122, 0, -19.907, -28.746, -89.885, -60.956, 4.802, -11.368,, 0.6441, -0.29068, -0.05426, -0.70538,
 13:32:13.170,d3:c7:8d:a5:a9:b5, 2015-01-01 00:15:07.740, 0.569, -0.356, 0.984, 0, 0.244, 0, -19.913, -28.746, -89.879, -60.956, 4.802, -11.368,, 0.64493, -0.29126, -0.05478, -0.70435,
 13:32:13.170,d3:c7:8d:a5:a9:b5, 2015-01-01 00:15:07.740, 0.573, -0.356, 0.984, 0, 0.244, 0, -19.913, -28.746, -89.879, -60.956, 4.802, -11.368,, 0.64493, -0.29126, -0.05478, -0.70435,
 13:32:13.170,d3:c7:8d:a5:a9:b5, 2015-01-01 00:15:07.740, 0.573, -0.359, 0.984, -0.427, -0.061, 0, -19.913, -28.74, -89.874, -60.956, 4.802, -11.368,, 0.64493, -0.29126, -0.05478, -0.70435,
 13:32:13.170,d3:c7:8d:a5:a9:b5, 2015-01-01 00:15:07.740, 0.574, -0.359, 0.984, -0.427, -0.061, 0, -19.918, -28.74, -89.874, -60.956, 4.802, -11.368,, 0.64493, -0.29126, -0.05478, -0.70435,
 13:32:13.201,d3:c7:8d:a5:a9:b5, 2015-01-01 00:15:07.740, 0.574, -0.36, 0.982, 0, 0.122, 0, -19.924, -28.74, -89.868, -60.956, 4.802, -11.368,, 0.64493, -0.29126, -0.05478, -0.70435,
 13:32:13.201,d3:c7:8d:a5:a9:b5, 2015-01-01 00:15:07.740, 0.574, -0.36, 0.982, 0, 0.122, 0, -19.924, -28.74, -89.868, -60.956, 4.802, -11.368,, 0.64493, -0.29126, -0.05478, -0.70435,
 13:32:13.203,d3:c7:8d:a5:a9:b5, 2015-01-01 00:15:07.740, 0.574, -0.36, 0.983, -0.061, 0.305, 0, -19.924, -28.74, -89.863, -60.956, 4.802, -11.368,, 0.64493, -0.29126, -0.05478, -0.70435,
 13:32:13.203,d3:c7:8d:a5:a9:b5, 2015-01-01 00:15:07.740, 0.571, -0.36, 0.983, -0.061, 0.305, 0, -19.924, -28.735, -89.863, -60.956, 4.802, -11.368,, 0.64493, -0.29126, -0.05478, -0.70435,
 13:32:13.260,d3:c7:8d:a5:a9:b5, 2015-01-01 00:15:08.100, 0.571, -0.359, 0.98, 0.183, 0.427, 0, -19.924, -28.729, -89.863, -60.956, 4.802, -11.368,, 0.64493, -0.29126, -0.05478, -0.70435,
 13:32:13.260,d3:c7:8d:a5:a9:b5, 2015-01-01 00:15:08.100, 0.57, -0.359, 0.98, 0.183, 0.427, 0, -19.924, -28.729, -89.857, -60.956, 4.802, -11.368,, 0.64493, -0.29126, -0.05478, -0.70435,
 13:32:13.260,d3:c7:8d:a5:a9:b5, 2015-01-01 00:15:08.100, 0.57, -0.356, 0.983, -0.061, 0, 0, -19.918, -28.724, -89.857, -60.956, 4.802, -11.368,, 0.64493, -0.29126, -0.05478, -0.70435,
 13:32:13.260,d3:c7:8d:a5:a9:b5, 2015-01-01 00:15:08.100, 0.576, -0.356, 0.983, -0.061, 0, 0, -19.924, -28.724, -89.852, -60.956, 4.802, -11.368,, 0.64493, -0.29126, -0.05478, -0.70435,
 13:32:13.291,d3:c7:8d:a5:a9:b5, 2015-01-01 00:15:08.100, 0.576, -0.36, 0.983, 0.061, 0, 0, -19.924, -28.724, -89.852, -60.956, 4.802, -11.368,, 0.64493, -0.29126, -0.05478, -0.70435,
 13:32:13.291,d3:c7:8d:a5:a9:b5, 2015-01-01 00:15:08.100, 0.571, -0.36, 0.983, 0.061, 0, 0, -19.924, -28.724, -89.846, -60.956, 4.802, -11.368,, 0.64493, -0.29126, -0.05478, -0.70435,
 13:32:13.291,d3:c7:8d:a5:a9:b5, 2015-01-01 00:15:08.100, 0.571, -0.358, 0.983, 0.061, 0.122, 0, -19.924, -28.724, -89.846, -60.956, 4.802, -11.368,, 0.64493, -0.29126, -0.05478, -0.70435,
 13:32:13.291,d3:c7:8d:a5:a9:b5, 2015-01-01 00:15:08.100, 0.572, -0.358, 0.983, 0.061, 0.122, 0, -19.924, -28.718, -89.841, -60.956, 4.802, -11.368,, 0.64493, -0.29126, -0.05478, -0.70435,
 13:32:13.319,d3:c7:8d:a5:a9:b5, 2015-01-01 00:15:08.100, 0.572, -0.359, 0.983, 0, 0, 0, -19.924, -28.718, -89.841, -60.956, 4.802, -11.368,, 0.64493, -0.29126, -0.05478, -0.70435,
 13:32:13.319,d3:c7:8d:a5:a9:b5, 2015-01-01 00:15:08.100, 0.57, -0.359, 0.983, 0, 0, 0, -19.924, -28.718, -89.835, -60.956, 4.802, -11.368,, 0.64493, -0.29126, -0.05478, -0.70435,
 13:32:13.319,d3:c7:8d:a5:a9:b5, 2015-01-01 00:15:08.100, 0.57, -0.358, 0.984, 0, 0, 0, -19.924, -28.718, -89.83, -60.956, 4.802, -11.368,, 0.64493, -0.29126, -0.05478, -0.70435,
 13:32:13.319,d3:c7:8d:a5:a9:b5, 2015-01-01 00:15:08.100, 0.573, -0.358, 0.984, 0, 0, 0, -19.924, -28.718, -89.83, -60.956, 4.802, -11.368,, 0.64493, -0.29126, -0.05478, -0.70435,
 13:32:13.381,d3:c7:8d:a5:a9:b5, 2015-01-01 00:15:08.100, 0.573, -0.36, 0.984, 0, -0.122, 0, -19.929, -28.718, -89.824, -60.956, 4.802, -11.368,, 0.64493, -0.29126, -0.05478, -0.70435,
 13:32:13.381,d3:c7:8d:a5:a9:b5, 2015-01-01 00:15:08.100, 0.57, -0.36, 0.984, 0, -0.122, 0, -19.929, -28.724, -89.824, -60.956, 4.802, -11.368,, 0.64493, -0.29126, -0.05478, -0.70435,
 13:32:13.381,d3:c7:8d:a5:a9:b5, 2015-01-01 00:15:08.100, 0.57, -0.358, 0.983, 0.183, 0, 0, -19.929, -28.718, -89.819, -60.956, 4.802, -11.368,, 0.64493, -0.29126, -0.05478, -0.70435,
 13:32:13.381,d3:c7:8d:a5:a9:b5, 2015-01-01 00:15:08.100, 0.573, -0.358, 0.983, 0.183, 0, 0, -19.924, -28.718, -89.813, -60.956, 4.802, -11.368,, 0.64493, -0.29126, -0.05478, -0.70435,
 13:32:13.411,d3:c7:8d:a5:a9:b5, 2015-01-01 00:15:08.100, 0.573, -0.359, 0.984, -0.122, 0.183, 0, -19.929, -28.718, -89.813, -60.956, 4.802, -11.368,, 0.64493, -0.29126, -0.05478, -0.70435,
 13:32:13.411,d3:c7:8d:a5:a9:b5, 2015-01-01 00:15:08.100, 0.57, -0.359, 0.984, -0.122, 0.183, 0, -19.929, -28.718, -89.813, -60.956, 4.802, -11.368,, 0.64493, -0.29126, -0.05478, -0.70435,
 13:32:13.411,d3:c7:8d:a5:a9:b5, 2015-01-01 00:15:08.100, 0.57, -0.359, 0.982, 0, 0.183, 0, -19.929, -28.713, -89.808, -60.956, 4.802, -11.368,, 0.64493, -0.29126, -0.05478, -0.70435,
 13:32:13.411,d3:c7:8d:a5:a9:b5, 2015-01-01 00:15:08.100, 0.57, -0.359, 0.982, 0, 0.183, 0, -19.929, -28.713, -89.808, -60.956, 4.802, -11.368,, 0.64493, -0.29126, -0.05478, -0.70435,
 13:32:13.472,d3:c7:8d:a5:a9:b5, 2015-01-01 00:15:08.100, 0.57, -0.358, 0.984, 0, -0.305, 0, -19.929, -28.713, -89.802, -60.858, 4.704, -11.270,, 0.64493, -0.29126, -0.05478, -0.70435,
 13:32:13.472,d3:c7:8d:a5:a9:b5, 2015-01-01 00:15:08.100, 0.573, -0.358, 0.984, 0, -0.305, 0, -19.935, -28.718, -89.802, -60.858, 4.704, -11.270,, 0.64493, -0.29126, -0.05478, -0.70435,
 13:32:13.472,d3:c7:8d:a5:a9:b5, 2015-01-01 00:15:08.100, 0.573, -0.358, 0.982, -0.122, -0.427, 0, -19.935, -28.718, -89.797, -60.858, 4.704, -11.270,, 0.64493, -0.29126, -0.05478, -0.70435,
 13:32:13.472,d3:c7:8d:a5:a9:b5, 2015-01-01 00:15:08.100, 0.576, -0.358, 0.982, -0.122, -0.427, 0, -19.94, -28.724, -89.791, -60.858, 4.704, -11.270,, 0.64493, -0.29126, -0.05478, -0.70435,
 13:32:13.500,d3:c7:8d:a5:a9:b5, 2015-01-01 00:15:08.100, 0.576, -0.359, 0.982, -0.122, -0.244, 0, -19.94, -28.724, -89.786, -60.858, 4.704, -11.270,, 0.64554, -0.29126, -0.05469, -0.7038,
 13:32:13.500,d3:c7:8d:a5:a9:b5, 2015-01-01 00:15:08.100, 0.577, -0.359, 0.982, -0.122, -0.244, 0, -19.94, -28.729, -89.786, -60.858, 4.704, -11.270,, 0.64554, -0.29126, -0.05469, -0.7038,
 13:32:13.500,d3:c7:8d:a5:a9:b5, 2015-01-01 00:15:08.100, 0.577, -0.361, 0.983, 0.061, 0.488, 0, -19.94, -28.724, -89.786, -60.858, 4.704, -11.270,, 0.64554, -0.29126, -0.05469, -0.7038,
 13:32:13.500,d3:c7:8d:a5:a9:b5, 2015-01-01 00:15:08.100, 0.566, -0.361, 0.983, 0.061, 0.488, 0, -19.94, -28.718, -89.786, -60.858, 4.704, -11.270,, 0.64554, -0.29126, -0.05469, -0.7038,
 13:32:13.532,d3:c7:8d:a5:a9:b5, 2015-01-01 00:15:08.100, 0.566, -0.358, 0.983, 0.244, 0.427, 0, -19.94, -28.713, -89.786, -60.858, 4.704, -11.270,, 0.64554, -0.29126, -0.05469, -0.7038,
 13:32:13.532,d3:c7:8d:a5:a9:b5, 2015-01-01 00:15:08.100, 0.566, -0.358, 0.983, 0.244, 0.427, 0, -19.935, -28.707, -89.786, -60.858, 4.704, -11.270,, 0.64554, -0.29126, -0.05469, -0.7038,
 13:32:13.532,d3:c7:8d:a5:a9:b5, 2015-01-01 00:15:08.100, 0.566, -0.357, 0.983, -0.061, -0.305, 0, -19.94, -28.713, -89.78, -60.858, 4.704, -11.270,, 0.64554, -0.29126, -0.05469, -0.7038,
 13:32:13.532,d3:c7:8d:a5:a9:b5, 2015-01-01 00:15:08.100, 0.576, -0.357, 0.983, -0.061, -0.305, 0, -19.94, -28.713, -89.775, -60.858, 4.704, -11.270,, 0.64554, -0.29126, -0.05469, -0.7038,
 13:32:13.590,d3:c7:8d:a5:a9:b5, 2015-01-01 00:15:08.425, 0.576, -0.36, 0.984, -0.122, -0.366, 0, -19.94, -28.718, -89.775, -60.858, 4.704, -11.270,, 0.64554, -0.29126, -0.05469, -0.7038,
 13:32:13.590,d3:c7:8d:a5:a9:b5, 2015-01-01 00:15:08.425, 0.569, -0.36, 0.984, -0.122, -0.366, 0, -19.946, -28.718, -89.769, -60.858, 4.704, -11.270,, 0.64554, -0.29126, -0.05469, -0.7038,
 13:32:13.590,d3:c7:8d:a5:a9:b5, 2015-01-01 00:15:08.425, 0.569, -0.358, 0.983, 0.061, 0.122, 0, -19.946, -28.718, -89.764, -60.858, 4.704, -11.270,, 0.64554, -0.29126, -0.05469, -0.7038,
 13:32:13.590,d3:c7:8d:a5:a9:b5, 2015-01-01 00:15:08.425, 0.571, -0.358, 0.983, 0.061, 0.122, 0, -19.946, -28.718, -89.764, -60.858, 4.704, -11.270,, 0.64554, -0.29126, -0.05469, -0.7038,
 13:32:13.621,d3:c7:8d:a5:a9:b5, 2015-01-01 00:15:08.425, 0.571, -0.359, 0.982, -0.061, -0.366, 0, -19.946, -28.718, -89.758, -60.858, 4.704, -11.270,, 0.64554, -0.29126, -0.05469, -0.7038,
 13:32:13.621,d3:c7:8d:a5:a9:b5, 2015-01-01 00:15:08.425, 0.573, -0.359, 0.982, -0.061, -0.366, 0, -19.951, -28.724, -89.758, -60.858, 4.704, -11.270,, 0.64554, -0.29126, -0.05469, -0.7038,
 13:32:13.621,d3:c7:8d:a5:a9:b5, 2015-01-01 00:15:08.425, 0.573, -0.36, 0.983, 0.061, -0.183, 0, -19.951, -28.724, -89.753, -60.858, 4.704, -11.270,, 0.64554, -0.29126, -0.05469, -0.7038,
 13:32:13.621,d3:c7:8d:a5:a9:b5, 2015-01-01 00:15:08.425, 0.575, -0.36, 0.983, 0.061, -0.183, 0, -19.951, -28.724, -89.753, -60.858, 4.704, -11.270,, 0.64554, -0.29126, -0.05469, -0.7038,
 13:32:13.650,d3:c7:8d:a5:a9:b5, 2015-01-01 00:15:08.425, 0.575, -0.359, 0.983, 0, 0.061, 0, -19.951, -28.724, -89.747, -60.858, 4.704, -11.270,, 0.64554, -0.29126, -0.05469, -0.7038,
 13:32:13.650,d3:c7:8d:a5:a9:b5, 2015-01-01 00:15:08.425, 0.572, -0.359, 0.983, 0, 0.061, 0, -19.951, -28.724, -89.747, -60.858, 4.704, -11.270,, 0.64554, -0.29126, -0.05469, -0.7038,
 13:32:13.650,d3:c7:8d:a5:a9:b5, 2015-01-01 00:15:08.425, 0.572, -0.358, 0.983, 0.061, 0.488, 0, -19.951, -28.718, -89.747, -60.858, 4.704, -11.270,, 0.64554, -0.29126, -0.05469, -0.7038,
 13:32:13.650,d3:c7:8d:a5:a9:b5, 2015-01-01 00:15:08.425, 0.57, -0.358, 0.983, 0.061, 0.488, 0, -19.951, -28.713, -89.747, -60.858, 4.704, -11.270,, 0.64554, -0.29126, -0.05469, -0.7038,
 13:32:13.711,d3:c7:8d:a5:a9:b5, 2015-01-01 00:15:08.425, 0.57, -0.358, 0.983, -0.122, 0.305, 0, -19.951, -28.707, -89.747, -60.858, 4.704, -11.270,, 0.64554, -0.29126, -0.05469, -0.7038,
 13:32:13.711,d3:c7:8d:a5:a9:b5, 2015-01-01 00:15:08.425, 0.568, -0.358, 0.983, -0.122, 0.305, 0, -19.951, -28.707, -89.742, -60.858, 4.704, -11.270,, 0.64554, -0.29126, -0.05469, -0.7038,
 13:32:13.711,d3:c7:8d:a5:a9:b5, 2015-01-01 00:15:08.425, 0.568, -0.358, 0.984, 0, 0.061, 0, -19.951, -28.707, -89.742, -60.858, 4.704, -11.270,, 0.64554, -0.29126, -0.05469, -0.7038,
 13:32:13.711,d3:c7:8d:a5:a9:b5, 2015-01-01 00:15:08.425, 0.567, -0.358, 0.984, 0, 0.061, 0, -19.951, -28.707, -89.742, -60.858, 4.704, -11.270,, 0.64554, -0.29126, -0.05469, -0.7038,
 13:32:13.742,d3:c7:8d:a5:a9:b5, 2015-01-01 00:15:08.425, 0.567, -0.358, 0.984, -0.122, -0.488, 0, -19.957, -28.707, -89.736, -60.858, 4.704, -11.270,, 0.64554, -0.29126, -0.05469, -0.7038,
 13:32:13.742,d3:c7:8d:a5:a9:b5, 2015-01-01 00:15:08.425, 0.573, -0.358, 0.984, -0.122, -0.488, 0, -19.957, -28.713, -89.731, -60.858, 4.704, -11.270,, 0.64554, -0.29126, -0.05469, -0.7038,
 13:32:13.742,d3:c7:8d:a5:a9:b5, 2015-01-01 00:15:08.425, 0.574, -0.36, 0.983, -0.305, -0.305, 0, -19.962, -28.713, -89.731, -60.858, 4.704, -11.270,, 0.64554, -0.29126, -0.05469, -0.7038,
 13:32:13.742,d3:c7:8d:a5:a9:b5, 2015-01-01 00:15:08.425, 0.574, -0.358, 0.983, 0, 0, 0, -19.962, -28.718, -89.725, -60.858, 4.704, -11.270,, 0.64554, -0.29126, -0.05469, -0.7038,
 13:32:13.771,d3:c7:8d:a5:a9:b5, 2015-01-01 00:15:08.425, 0.572, -0.358, 0.983, 0, 0, 0, -19.962, -28.713, -89.725, -60.858, 4.802, -11.270,, 0.64554, -0.29126, -0.05469, -0.7038,
 13:32:13.771,d3:c7:8d:a5:a9:b5, 2015-01-01 00:15:08.425, 0.572, -0.36, 0.984, 0, 0.366, 0, -19.962, -28.713, -89.72, -60.858, 4.802, -11.270,, 0.64554, -0.29126, -0.05469, -0.7038,
 13:32:13.771,d3:c7:8d:a5:a9:b5, 2015-01-01 00:15:08.425, 0.571, -0.36, 0.984, 0, 0.366, 0, -19.962, -28.707, -89.72, -60.858, 4.802, -11.270,, 0.64554, -0.29126, -0.05469, -0.7038,
 13:32:13.771,d3:c7:8d:a5:a9:b5, 2015-01-01 00:15:08.425, 0.571, -0.358, 0.984, -0.061, 0.122, 0, -19.968, -28.707, -89.72, -60.858, 4.802, -11.270,, 0.64554, -0.29126, -0.05469, -0.7038,
 13:32:13.831,d3:c7:8d:a5:a9:b5, 2015-01-01 00:15:08.425, 0.573, -0.358, 0.984, -0.061, 0.122, 0, -19.968, -28.702, -89.72, -60.858, 4.802, -11.270,, 0.64554, -0.29126, -0.05469, -0.7038,
 13:32:13.831,d3:c7:8d:a5:a9:b5, 2015-01-01 00:15:08.425, 0.573, -0.359, 0.983, -0.122, 0.183, 0, -19.968, -28.702, -89.714, -60.858, 4.802, -11.270,, 0.64554, -0.29126, -0.05469, -0.7038,
 13:32:13.831,d3:c7:8d:a5:a9:b5, 2015-01-01 00:15:08.425, 0.567, -0.359, 0.983, -0.122, 0.183, 0, -19.968, -28.702, -89.714, -60.858, 4.802, -11.270,, 0.64554, -0.29126, -0.05469, -0.7038,
 13:32:13.831,d3:c7:8d:a5:a9:b5, 2015-01-01 00:15:08.425, 0.567, -0.358, 0.984, 0, 0, 0, -19.968, -28.696, -89.714, -60.858, 4.802, -11.270,, 0.64554, -0.29126, -0.05469, -0.7038,
 13:32:13.860,d3:c7:8d:a5:a9:b5, 2015-01-01 00:15:08.425, 0.573, -0.358, 0.984, 0, 0, 0, -19.968, -28.696, -89.709, -60.858, 4.802, -11.270,, 0.64597, -0.29126, -0.05453, -0.70343,
 13:32:13.860,d3:c7:8d:a5:a9:b5, 2015-01-01 00:15:08.425, 0.573, -0.361, 0.982, -0.183, -0.183, 0, -19.973, -28.696, -89.709, -60.858, 4.802, -11.270,, 0.64597, -0.29126, -0.05453, -0.70343,
 13:32:13.860,d3:c7:8d:a5:a9:b5, 2015-01-01 00:15:08.425, 0.57, -0.361, 0.982, -0.183, -0.183, 0, -19.973, -28.702, -89.709, -60.858, 4.802, -11.270,, 0.64597, -0.29126, -0.05453, -0.70343,
 13:32:13.860,d3:c7:8d:a5:a9:b5, 2015-01-01 00:15:08.425, 0.57, -0.358, 0.984, 0, 0.183, 0, -19.973, -28.702, -89.703, -60.858, 4.802, -11.270,, 0.64597, -0.29126, -0.05453, -0.70343,
 13:32:13.891,d3:c7:8d:a5:a9:b5, 2015-01-01 00:15:08.425, 0.568, -0.358, 0.984, 0, 0.183, 0, -19.973, -28.696, -89.703, -60.858, 4.802, -11.270,, 0.64597, -0.29126, -0.05453, -0.70343,
 13:32:13.891,d3:c7:8d:a5:a9:b5, 2015-01-01 00:15:08.425, 0.568, -0.359, 0.984, -0.183, -0.183, 0, -19.979, -28.696, -89.703, -60.858, 4.802, -11.270,, 0.64597, -0.29126, -0.05453, -0.70343,
 13:32:13.891,d3:c7:8d:a5:a9:b5, 2015-01-01 00:15:08.425, 0.57, -0.359, 0.984, -0.183, -0.183, 0, -19.979, -28.696, -89.698, -60.858, 4.802, -11.270,, 0.64597, -0.29126, -0.05453, -0.70343,
 13:32:13.891,d3:c7:8d:a5:a9:b5, 2015-01-01 00:15:08.425, 0.57, -0.36, 0.983, -0.061, -0.61, 0, -19.984, -28.702, -89.692, -60.858, 4.802, -11.270,, 0.64597, -0.29126, -0.05453, -0.70343,
 13:32:13.951,d3:c7:8d:a5:a9:b5, 2015-01-01 00:15:08.785, 0.575, -0.36, 0.983, -0.061, -0.61, 0, -19.984, -28.707, -89.692, -60.858, 4.802, -11.270,, 0.64597, -0.29126, -0.05453, -0.70343,
 13:32:13.951,d3:c7:8d:a5:a9:b5, 2015-01-01 00:15:08.785, 0.575, -0.361, 0.984, 0.061, -0.122, 0, -19.984, -28.707, -89.687, -60.858, 4.802, -11.270,, 0.64597, -0.29126, -0.05453, -0.70343,
 13:32:13.951,d3:c7:8d:a5:a9:b5, 2015-01-01 00:15:08.785, 0.572, -0.361, 0.984, 0.061, -0.122, 0, -19.984, -28.707, -89.687, -60.858, 4.802, -11.270,, 0.64597, -0.29126, -0.05453, -0.70343,
 13:32:13.951,d3:c7:8d:a5:a9:b5, 2015-01-01 00:15:08.785, 0.572, -0.359, 0.983, 0.061, 0.366, 0, -19.984, -28.707, -89.681, -60.858, 4.802, -11.270,, 0.64597, -0.29126, -0.05453, -0.70343,
 13:32:13.981,d3:c7:8d:a5:a9:b5, 2015-01-01 00:15:08.785, 0.571, -0.359, 0.983, 0.061, 0.366, 0, -19.984, -28.702, -89.681, -60.858, 4.802, -11.270,, 0.64597, -0.29126, -0.05453, -0.70343,
 13:32:13.981,d3:c7:8d:a5:a9:b5, 2015-01-01 00:15:08.785, 0.571, -0.359, 0.982, 0.183, 0.488, 0, -19.984, -28.696, -89.681, -60.858, 4.802, -11.270,, 0.64597, -0.29126, -0.05453, -0.70343,
 13:32:13.981,d3:c7:8d:a5:a9:b5, 2015-01-01 00:15:08.785, 0.568, -0.359, 0.982, 0.183, 0.488, 0, -19.979, -28.696, -89.681, -60.858, 4.802, -11.270,, 0.64597, -0.29126, -0.05453, -0.70343,
 13:32:13.981,d3:c7:8d:a5:a9:b5, 2015-01-01 00:15:08.785, 0.568, -0.358, 0.983, 0.244, 0, 0, -19.979, -28.691, -89.681, -60.858, 4.802, -11.270,, 0.64597, -0.29126, -0.05453, -0.70343,
 13:32:14.010,d3:c7:8d:a5:a9:b5, 2015-01-01 00:15:08.785, 0.568, -0.358, 0.983, 0.244, 0, 0, -19.979, -28.691, -89.681, -60.858, 4.802, -11.270,, 0.64597, -0.29126, -0.05453, -0.70343,
 13:32:14.010,d3:c7:8d:a5:a9:b5, 2015-01-01 00:15:08.785, 0.568, -0.357, 0.983, 0.122, -0.61, 0, -19.979, -28.691, -89.676, -60.858, 4.802, -11.270,, 0.64597, -0.29126, -0.05453, -0.70343,
 13:32:14.010,d3:c7:8d:a5:a9:b5, 2015-01-01 00:15:08.785, 0.576, -0.357, 0.983, 0.122, -0.61, 0, -19.979, -28.696, -89.67, -60.858, 4.802, -11.270,, 0.64597, -0.29126, -0.05453, -0.70343,
 13:32:14.010,d3:c7:8d:a5:a9:b5, 2015-01-01 00:15:08.785, 0.576, -0.359, 0.985, -0.183, -0.427, 0, -19.979, -28.702, -89.67, -60.858, 4.802, -11.270,, 0.64597, -0.29126, -0.05453, -0.70343,
 13:32:14.070,d3:c7:8d:a5:a9:b5, 2015-01-01 00:15:08.785, 0.575, -0.359, 0.985, -0.183, -0.427, 0, -19.984, -28.707, -89.665, -60.858, 4.802, -11.270,, 0.64597, -0.29126, -0.05453, -0.70343,
 13:32:14.070,d3:c7:8d:a5:a9:b5, 2015-01-01 00:15:08.785, 0.575, -0.36, 0.983, -0.122, 0.61, 0, -19.984, -28.702, -89.665, -60.858, 4.802, -11.270,, 0.64597, -0.29126, -0.05453, -0.70343,
 13:32:14.070,d3:c7:8d:a5:a9:b5, 2015-01-01 00:15:08.785, 0.565, -0.36, 0.983, -0.122, 0.61, 0, -19.984, -28.696, -89.665, -60.858, 4.802, -11.270,, 0.64597, -0.29126, -0.05453, -0.70343,
 13:32:14.070,d3:c7:8d:a5:a9:b5, 2015-01-01 00:15:08.785, 0.565, -0.358, 0.983, 0, 0.549, 0, -19.984, -28.691, -89.665, -60.858, 4.802, -11.270,, 0.64597, -0.29126, -0.05453, -0.70343,
 13:32:14.100,d3:c7:8d:a5:a9:b5, 2015-01-01 00:15:08.785, 0.565, -0.358, 0.983, 0, 0.549, 0, -19.984, -28.685, -89.665, -60.858, 4.802, -11.270,, 0.64597, -0.29126, -0.05453, -0.70343,
 13:32:14.100,d3:c7:8d:a5:a9:b5, 2015-01-01 00:15:08.785, 0.565, -0.359, 0.985, -0.122, -0.183, 0, -19.984, -28.685, -89.665, -60.858, 4.802, -11.270,, 0.64597, -0.29126, -0.05453, -0.70343,
 13:32:14.100,d3:c7:8d:a5:a9:b5, 2015-01-01 00:15:08.785, 0.576, -0.359, 0.985, -0.122, -0.183, 0, -19.984, -28.685, -89.659, -60.858, 4.802, -11.270,, 0.64597, -0.29126, -0.05453, -0.70343,
 13:32:14.100,d3:c7:8d:a5:a9:b5, 2015-01-01 00:15:08.785, 0.576, -0.36, 0.982, -0.061, -0.366, 0, -19.99, -28.685, -89.659, -60.858, 4.802, -11.270,, 0.64597, -0.29126, -0.05453, -0.70343,
 13:32:14.130,d3:c7:8d:a5:a9:b5, 2015-01-01 00:15:08.785, 0.572, -0.36, 0.982, -0.061, -0.366, 0, -19.99, -28.691, -89.654, -60.662, 4.802, -11.270,, 0.64597, -0.29126, -0.05453, -0.70343,
 13:32:14.130,d3:c7:8d:a5:a9:b5, 2015-01-01 00:15:08.785, 0.572, -0.359, 0.983, 0.244, 0.244, 0, -19.99, -28.691, -89.654, -60.662, 4.802, -11.270,, 0.64597, -0.29126, -0.05453, -0.70343,
 13:32:14.130,d3:c7:8d:a5:a9:b5, 2015-01-01 00:15:08.785, 0.571, -0.359, 0.983, 0.244, 0.244, 0, -19.99, -28.685, -89.654, -60.662, 4.802, -11.270,, 0.64597, -0.29126, -0.05453, -0.70343,
 13:32:14.130,d3:c7:8d:a5:a9:b5, 2015-01-01 00:15:08.785, 0.571, -0.358, 0.984, 0, 0.427, 0, -19.984, -28.685, -89.654, -60.662, 4.802, -11.270,, 0.64597, -0.29126, -0.05453, -0.70343,
 13:32:14.190,d3:c7:8d:a5:a9:b5, 2015-01-01 00:15:08.785, 0.57, -0.358, 0.984, 0, 0.427, 0, -19.984, -28.68, -89.654, -60.662, 4.802, -11.270,, 0.64597, -0.29126, -0.05453, -0.70343,
 13:32:14.190,d3:c7:8d:a5:a9:b5, 2015-01-01 00:15:08.785, 0.57, -0.359, 0.984, 0, 0.183, 0, -19.984, -28.674, -89.654, -60.662, 4.802, -11.270,, 0.64597, -0.29126, -0.05453, -0.70343,
 13:32:14.190,d3:c7:8d:a5:a9:b5, 2015-01-01 00:15:08.785, 0.57, -0.359, 0.984, 0, 0.183, 0, -19.984, -28.674, -89.648, -60.662, 4.802, -11.270,, 0.64597, -0.29126, -0.05453, -0.70343,
 13:32:14.190,d3:c7:8d:a5:a9:b5, 2015-01-01 00:15:08.785, 0.57, -0.36, 0.982, 0.122, 0.244, 0, -19.984, -28.674, -89.648, -60.662, 4.802, -11.270,, 0.64597, -0.29126, -0.05453, -0.70343,
 13:32:14.219,d3:c7:8d:a5:a9:b5, 2015-01-01 00:15:08.785, 0.565, -0.36, 0.982, 0.122, 0.244, 0, -19.984, -28.669, -89.648, -60.662, 4.802, -11.270,, 0.64639, -0.29117, -0.05444, -0.70309,
 13:32:14.219,d3:c7:8d:a5:a9:b5, 2015-01-01 00:15:08.785, 0.565, -0.357, 0.983, 0.183, -0.305, 0, -19.984, -28.669, -89.648, -60.662, 4.802, -11.270,, 0.64639, -0.29117, -0.05444, -0.70309,
 13:32:14.219,d3:c7:8d:a5:a9:b5, 2015-01-01 00:15:08.785, 0.572, -0.357, 0.983, 0.183, -0.305, 0, -19.984, -28.674, -89.643, -60.662, 4.802, -11.270,, 0.64639, -0.29117, -0.05444, -0.70309,
 13:32:14.219,d3:c7:8d:a5:a9:b5, 2015-01-01 00:15:08.785, 0.572, -0.359, 0.985, -0.122, -0.549, 0, -19.984, -28.68, -89.637, -60.662, 4.802, -11.270,, 0.64639, -0.29117, -0.05444, -0.70309,
 13:32:14.251,d3:c7:8d:a5:a9:b5, 2015-01-01 00:15:08.785, 0.573, -0.359, 0.985, -0.122, -0.549, 0, -19.99, -28.68, -89.637, -60.662, 4.802, -11.270,, 0.64639, -0.29117, -0.05444, -0.70309,
 13:32:14.251,d3:c7:8d:a5:a9:b5, 2015-01-01 00:15:08.785, 0.573, -0.359, 0.984, 0, -0.244, 0, -19.99, -28.685, -89.632, -60.662, 4.802, -11.270,, 0.64639, -0.29117, -0.05444, -0.70309,
 13:32:14.251,d3:c7:8d:a5:a9:b5, 2015-01-01 00:15:08.785, 0.571, -0.359, 0.984, 0, -0.244, 0, -19.99, -28.685, -89.632, -60.662, 4.802, -11.270,, 0.64639, -0.29117, -0.05444, -0.70309,
 13:32:14.251,d3:c7:8d:a5:a9:b5, 2015-01-01 00:15:08.785, 0.571, -0.36, 0.983, 0, 0.183, 0, -19.99, -28.685, -89.632, -60.662, 4.802, -11.270,, 0.64639, -0.29117, -0.05444, -0.70309,
 13:32:14.310,d3:c7:8d:a5:a9:b5, 2015-01-01 00:15:09.140, 0.568, -0.36, 0.983, 0, 0.183, 0, -19.99, -28.68, -89.632, -60.662, 4.802, -11.270,, 0.64639, -0.29117, -0.05444, -0.70309,
 13:32:14.310,d3:c7:8d:a5:a9:b5, 2015-01-01 00:15:09.140, 0.568, -0.359, 0.983, 0.122, 0, 0, -19.99, -28.68, -89.626, -60.662, 4.802, -11.270,, 0.64639, -0.29117, -0.05444, -0.70309,
 13:32:14.310,d3:c7:8d:a5:a9:b5, 2015-01-01 00:15:09.140, 0.569, -0.359, 0.983, 0.122, 0, 0, -19.99, -28.68, -89.626, -60.662, 4.802, -11.270,, 0.64639, -0.29117, -0.05444, -0.70309,
 13:32:14.310,d3:c7:8d:a5:a9:b5, 2015-01-01 00:15:09.140, 0.569, -0.359, 0.984, 0.122, -0.366, 0, -19.99, -28.685, -89.621, -60.662, 4.802, -11.270,, 0.64639, -0.29117, -0.05444, -0.70309,
 13:32:14.341,d3:c7:8d:a5:a9:b5, 2015-01-01 00:15:09.140, 0.57, -0.359, 0.984, 0.122, -0.366, 0, -19.99, -28.685, -89.621, -60.662, 4.802, -11.270,, 0.64639, -0.29117, -0.05444, -0.70309,
 13:32:14.341,d3:c7:8d:a5:a9:b5, 2015-01-01 00:15:09.140, 0.57, -0.358, 0.984, 0, -0.427, 0, -19.99, -28.691, -89.615, -60.662, 4.802, -11.270,, 0.64639, -0.29117, -0.05444, -0.70309,
 13:32:14.341,d3:c7:8d:a5:a9:b5, 2015-01-01 00:15:09.140, 0.571, -0.358, 0.984, 0, -0.427, 0, -19.99, -28.691, -89.615, -60.662, 4.802, -11.270,, 0.64639, -0.29117, -0.05444, -0.70309,
 13:32:14.341,d3:c7:8d:a5:a9:b5, 2015-01-01 00:15:09.140, 0.571, -0.359, 0.983, -0.061, -0.305, 0, -19.99, -28.696, -89.61, -60.662, 4.802, -11.270,, 0.64639, -0.29117, -0.05444, -0.70309,
 13:32:14.370,d3:c7:8d:a5:a9:b5, 2015-01-01 00:15:09.140, 0.573, -0.359, 0.983, -0.061, -0.305, 0, -19.995, -28.696, -89.61, -60.662, 4.802, -11.270,, 0.64639, -0.29117, -0.05444, -0.70309,
 13:32:14.370,d3:c7:8d:a5:a9:b5, 2015-01-01 00:15:09.140, 0.573, -0.359, 0.984, -0.122, -0.122, 0, -19.995, -28.696, -89.604, -60.662, 4.802, -11.270,, 0.64639, -0.29117, -0.05444, -0.70309,
 13:32:14.370,d3:c7:8d:a5:a9:b5, 2015-01-01 00:15:09.140, 0.571, -0.359, 0.984, -0.122, -0.122, 0, -19.995, -28.696, -89.604, -60.662, 4.802, -11.270,, 0.64639, -0.29117, -0.05444, -0.70309,
 13:32:14.370,d3:c7:8d:a5:a9:b5, 2015-01-01 00:15:09.140, 0.571, -0.36, 0.984, 0, 0, 0, -19.995, -28.696, -89.604, -60.662, 4.802, -11.270,, 0.64639, -0.29117, -0.05444, -0.70309,
 13:32:14.431,d3:c7:8d:a5:a9:b5, 2015-01-01 00:15:09.140, 0.57, -0.36, 0.984, 0, 0, 0, -19.995, -28.696, -89.599, -60.662, 4.802, -11.270,, 0.64639, -0.29117, -0.05444, -0.70309,
 13:32:14.431,d3:c7:8d:a5:a9:b5, 2015-01-01 00:15:09.140, 0.57, -0.358, 0.982, 0, 0.183, 0, -19.995, -28.691, -89.599, -60.662, 4.802, -11.270,, 0.64639, -0.29117, -0.05444, -0.70309,
 13:32:14.431,d3:c7:8d:a5:a9:b5, 2015-01-01 00:15:09.140, 0.569, -0.358, 0.982, 0, 0.183, 0, -19.995, -28.691, -89.599, -60.662, 4.802, -11.270,, 0.64639, -0.29117, -0.05444, -0.70309,
 13:32:14.431,d3:c7:8d:a5:a9:b5, 2015-01-01 00:15:09.140, 0.569, -0.359, 0.984, 0, -0.305, 0, -19.995, -28.691, -89.599, -60.662, 4.802, -11.270,, 0.64639, -0.29117, -0.05444, -0.70309,
 13:32:14.460,d3:c7:8d:a5:a9:b5, 2015-01-01 00:15:09.140, 0.573, -0.359, 0.984, 0, -0.305, 0, -20.001, -28.696, -89.594, -60.662, 4.802, -11.270,, 0.64639, -0.29117, -0.05444, -0.70309,
 13:32:14.460,d3:c7:8d:a5:a9:b5, 2015-01-01 00:15:09.140, 0.573, -0.358, 0.984, 0.061, -0.061, 0, -20.001, -28.696, -89.594, -60.662, 4.802, -11.270,, 0.64639, -0.29117, -0.05444, -0.70309,
 13:32:14.460,d3:c7:8d:a5:a9:b5, 2015-01-01 00:15:09.140, 0.571, -0.358, 0.984, 0.061, -0.061, 0, -20.001, -28.696, -89.594, -60.662, 4.802, -11.270,, 0.64639, -0.29117, -0.05444, -0.70309,
 13:32:14.460,d3:c7:8d:a5:a9:b5, 2015-01-01 00:15:09.140, 0.571, -0.359, 0.984, 0.122, 0.244, 0, -19.995, -28.691, -89.594, -60.662, 4.802, -11.270,, 0.64639, -0.29117, -0.05444, -0.70309,
 13:32:14.490,d3:c7:8d:a5:a9:b5, 2015-01-01 00:15:09.140, 0.567, -0.359, 0.984, 0.122, 0.244, 0, -19.995, -28.691, -89.588, -60.760, 4.802, -11.368,, 0.64639, -0.29117, -0.05444, -0.70309,
 13:32:14.490,d3:c7:8d:a5:a9:b5, 2015-01-01 00:15:09.140, 0.567, -0.359, 0.984, 0, 0.122, 0, -19.995, -28.685, -89.588, -60.760, 4.802, -11.368,, 0.64639, -0.29117, -0.05444, -0.70309,
 13:32:14.490,d3:c7:8d:a5:a9:b5, 2015-01-01 00:15:09.140, 0.57, -0.359, 0.984, 0, 0.122, 0, -19.995, -28.685, -89.588, -60.760, 4.802, -11.368,, 0.64639, -0.29117, -0.05444, -0.70309,
 13:32:14.490,d3:c7:8d:a5:a9:b5, 2015-01-01 00:15:09.140, 0.57, -0.359, 0.984, 0.061, -0.122, 0, -19.995, -28.685, -89.588, -60.760, 4.802, -11.368,, 0.64639, -0.29117, -0.05444, -0.70309,
 13:32:14.550,d3:c7:8d:a5:a9:b5, 2015-01-01 00:15:09.140, 0.569, -0.359, 0.984, 0.061, -0.122, 0, -19.995, -28.685, -89.583, -60.760, 4.802, -11.368,, 0.64639, -0.29117, -0.05444, -0.70309,
 13:32:14.550,d3:c7:8d:a5:a9:b5, 2015-01-01 00:15:09.140, 0.569, -0.359, 0.985, 0.122, -0.061, 0, -19.995, -28.685, -89.583, -60.760, 4.802, -11.368,, 0.64639, -0.29117, -0.05444, -0.70309,
 13:32:14.550,d3:c7:8d:a5:a9:b5, 2015-01-01 00:15:09.140, 0.567, -0.359, 0.985, 0.122, -0.061, 0, -19.995, -28.685, -89.583, -60.760, 4.802, -11.368,, 0.64639, -0.29117, -0.05444, -0.70309,
 13:32:14.550,d3:c7:8d:a5:a9:b5, 2015-01-01 00:15:09.140, 0.567, -0.356, 0.984, -0.122, -0.488, 0, -19.995, -28.691, -89.577, -60.760, 4.802, -11.368,, 0.64639, -0.29117, -0.05444, -0.70309,
 13:32:14.611,d3:c7:8d:a5:a9:b5, 2015-01-01 00:15:09.140, 0.57, -0.356, 0.984, -0.122, -0.488, 0, -20.001, -28.696, -89.577, -60.760, 4.802, -11.368,, 0.64676, -0.29126, -0.05463, -0.7027,
 13:32:14.611,d3:c7:8d:a5:a9:b5, 2015-01-01 00:15:09.140, 0.57, -0.359, 0.983, -0.366, -0.854, 0, -20.006, -28.702, -89.572, -60.760, 4.802, -11.368,, 0.64676, -0.29126, -0.05463, -0.7027,
 13:32:14.611,d3:c7:8d:a5:a9:b5, 2015-01-01 00:15:09.140, 0.579, -0.359, 0.983, -0.366, -0.854, 0, -20.012, -28.707, -89.566, -60.760, 4.802, -11.368,, 0.64676, -0.29126, -0.05463, -0.7027,
 13:32:14.611,d3:c7:8d:a5:a9:b5, 2015-01-01 00:15:09.140, 0.579, -0.361, 0.982, -0.122, -0.183, -0.305, -20.012, -28.707, -89.566, -60.760, 4.802, -11.368,, 0.64676, -0.29126, -0.05463, -0.7027,
 13:32:14.611,d3:c7:8d:a5:a9:b5, 2015-01-01 00:15:09.140, 0.571, -0.361, 0.982, -0.122, -0.183, -0.305, -20.012, -28.713, -89.566, -60.760, 4.802, -11.368,, 0.64676, -0.29126, -0.05463, -0.7027,
 13:32:14.611,d3:c7:8d:a5:a9:b5, 2015-01-01 00:15:09.140, 0.571, -0.358, 0.984, 0, 0.488, -0.244, -20.006, -28.707, -89.572, -60.760, 4.802, -11.368,, 0.64676, -0.29126, -0.05463, -0.7027,
 13:32:14.611,d3:c7:8d:a5:a9:b5, 2015-01-01 00:15:09.140, 0.569, -0.358, 0.984, 0, 0.488, -0.244, -20.006, -28.702, -89.577, -60.760, 4.802, -11.368,, 0.64676, -0.29126, -0.05463, -0.7027,
 13:32:14.611,d3:c7:8d:a5:a9:b5, 2015-01-01 00:15:09.140, 0.569, -0.359, 0.982, -0.183, 0.061, 0, -20.006, -28.702, -89.572, -60.760, 4.802, -11.368,, 0.64676, -0.29126, -0.05463, -0.7027,
 13:32:14.701,d3:c7:8d:a5:a9:b5, 2015-01-01 00:15:09.140, 0.575, -0.359, 0.982, -0.183, 0.061, 0, -20.012, -28.702, -89.572, -60.760, 4.802, -11.368,, 0.64676, -0.29126, -0.05463, -0.7027,
 13:32:14.701,d3:c7:8d:a5:a9:b5, 2015-01-01 00:15:09.140, 0.574, -0.359, 0.983, -0.122, 0.244, 0.122, -20.012, -28.696, -89.572, -60.760, 4.802, -11.368,, 0.64676, -0.29126, -0.05463, -0.7027,
 13:32:14.701,d3:c7:8d:a5:a9:b5, 2015-01-01 00:15:09.140, 0.574, -0.36, 0.983, 0.183, 0.793, 0.122, -20.012, -28.691, -89.572, -60.760, 4.802, -11.368,, 0.64676, -0.29126, -0.05463, -0.7027,
 13:32:14.703,d3:c7:8d:a5:a9:b5, 2015-01-01 00:15:09.140, 0.567, -0.36, 0.983, 0.183, 0.793, 0.122, -20.012, -28.685, -89.572, -60.760, 4.802, -11.368,, 0.64676, -0.29126, -0.05463, -0.7027,
 13:32:14.703,d3:c7:8d:a5:a9:b5, 2015-01-01 00:15:09.140, 0.567, -0.359, 0.984, 0.305, 0.732, 0.061, -20.006, -28.674, -89.572, -60.760, 4.802, -11.368,, 0.64676, -0.29126, -0.05463, -0.7027,
 13:32:14.703,d3:c7:8d:a5:a9:b5, 2015-01-01 00:15:09.140, 0.565, -0.359, 0.984, 0.305, 0.732, 0.061, -20.001, -28.669, -89.572, -60.760, 4.802, -11.368,, 0.64676, -0.29126, -0.05463, -0.7027,
 13:32:14.703,d3:c7:8d:a5:a9:b5, 2015-01-01 00:15:09.140, 0.565, -0.357, 0.985, 0, 0.183, 0.061, -20.001, -28.663, -89.572, -60.760, 4.802, -11.368,, 0.64676, -0.29126, -0.05463, -0.7027,
 13:32:14.703,d3:c7:8d:a5:a9:b5, 2015-01-01 00:15:09.140, 0.569, -0.357, 0.985, 0, 0.183, 0.061, -20.001, -28.663, -89.572, -60.760, 4.802, -11.368,, 0.64676, -0.29126, -0.05463, -0.7027,
 13:32:14.730,d3:c7:8d:a5:a9:b5, 2015-01-01 00:15:09.530, 0.569, -0.359, 0.983, -0.122, -0.183, 0, -20.001, -28.663, -89.572, -60.760, 4.802, -11.368,, 0.64676, -0.29126, -0.05463, -0.7027,
 13:32:14.730,d3:c7:8d:a5:a9:b5, 2015-01-01 00:15:09.530, 0.571, -0.359, 0.983, -0.122, -0.183, 0, -20.006, -28.663, -89.566, -60.760, 4.802, -11.368,, 0.64676, -0.29126, -0.05463, -0.7027,
 13:32:14.730,d3:c7:8d:a5:a9:b5, 2015-01-01 00:15:09.530, 0.571, -0.359, 0.984, 0, -0.305, 0, -20.006, -28.663, -89.566, -60.760, 4.802, -11.368,, 0.64676, -0.29126, -0.05463, -0.7027,
 13:32:14.730,d3:c7:8d:a5:a9:b5, 2015-01-01 00:15:09.530, 0.573, -0.359, 0.984, 0, -0.305, 0, -20.006, -28.663, -89.566, -60.760, 4.802, -11.368,, 0.64676, -0.29126, -0.05463, -0.7027,
 13:32:14.790,d3:c7:8d:a5:a9:b5, 2015-01-01 00:15:09.530, 0.573, -0.36, 0.983, 0.061, 0.061, 0, -20.006, -28.669, -89.561, -60.760, 4.802, -11.368,, 0.64676, -0.29126, -0.05463, -0.7027,
 13:32:14.790,d3:c7:8d:a5:a9:b5, 2015-01-01 00:15:09.530, 0.572, -0.36, 0.983, 0.061, 0.061, 0, -20.006, -28.663, -89.561, -60.760, 4.802, -11.368,, 0.64676, -0.29126, -0.05463, -0.7027,
 13:32:14.790,d3:c7:8d:a5:a9:b5, 2015-01-01 00:15:09.530, 0.572, -0.359, 0.984, 0.122, 0.61, 0.122, -20.006, -28.663, -89.561, -60.760, 4.802, -11.368,, 0.64676, -0.29126, -0.05463, -0.7027,
 13:32:14.790,d3:c7:8d:a5:a9:b5, 2015-01-01 00:15:09.530, 0.568, -0.359, 0.984, 0.122, 0.61, 0.122, -20.006, -28.652, -89.561, -60.760, 4.802, -11.368,, 0.64676, -0.29126, -0.05463, -0.7027,
 13:32:14.820,d3:c7:8d:a5:a9:b5, 2015-01-01 00:15:09.530, 0.568, -0.358, 0.984, 0.122, 0.549, 0.122, -20.001, -28.647, -89.561, -60.760, 4.802, -11.368,, 0.64676, -0.29126, -0.05463, -0.7027,
 13:32:14.820,d3:c7:8d:a5:a9:b5, 2015-01-01 00:15:09.530, 0.567, -0.358, 0.984, 0.122, 0.549, 0.122, -20.001, -28.641, -89.561, -60.760, 4.802, -11.368,, 0.64676, -0.29126, -0.05463, -0.7027,
 13:32:14.820,d3:c7:8d:a5:a9:b5, 2015-01-01 00:15:09.530, 0.567, -0.359, 0.984, 0.183, 0, 0, -20.001, -28.641, -89.561, -60.760, 4.802, -11.368,, 0.64676, -0.29126, -0.05463, -0.7027,
 13:32:14.820,d3:c7:8d:a5:a9:b5, 2015-01-01 00:15:09.530, 0.565, -0.359, 0.984, 0.183, 0, 0, -20.001, -28.641, -89.561, -60.760, 4.802, -11.368,, 0.64676, -0.29126, -0.05463, -0.7027,
 13:32:14.851,d3:c7:8d:a5:a9:b5, 2015-01-01 00:15:09.530, 0.565, -0.358, 0.984, 0.244, -0.549, -0.061, -19.995, -28.641, -89.555, -60.760, 4.802, -11.368,, 0.64676, -0.29126, -0.05463, -0.7027,
 13:32:14.851,d3:c7:8d:a5:a9:b5, 2015-01-01 00:15:09.530, 0.569, -0.358, 0.984, 0.244, -0.549, -0.061, -19.995, -28.647, -89.555, -60.760, 4.802, -11.368,, 0.64676, -0.29126, -0.05463, -0.7027,
 13:32:14.851,d3:c7:8d:a5:a9:b5, 2015-01-01 00:15:09.530, 0.569, -0.358, 0.984, 0, -0.916, -0.061, -19.995, -28.652, -89.55, -60.760, 4.802, -11.368,, 0.64676, -0.29126, -0.05463, -0.7027,
 13:32:14.851,d3:c7:8d:a5:a9:b5, 2015-01-01 00:15:09.530, 0.57, -0.358, 0.984, 0, -0.916, -0.061, -19.995, -28.658, -89.544, -60.760, 4.802, -11.368,, 0.64676, -0.29126, -0.05463, -0.7027,
 13:32:14.911,d3:c7:8d:a5:a9:b5, 2015-01-01 00:15:09.530, 0.57, -0.359, 0.985, 0, -0.671, -0.183, -20.001, -28.669, -89.544, -60.760, 4.802, -11.368,, 0.64676, -0.29126, -0.05463, -0.7027,
 13:32:14.911,d3:c7:8d:a5:a9:b5, 2015-01-01 00:15:09.530, 0.568, -0.359, 0.985, 0, -0.671, -0.183, -20.001, -28.674, -89.544, -60.760, 4.802, -11.368,, 0.64676, -0.29126, -0.05463, -0.7027,
 13:32:14.911,d3:c7:8d:a5:a9:b5, 2015-01-01 00:15:09.530, 0.568, -0.358, 0.985, -0.122, -0.671, -0.244, -20.001, -28.68, -89.539, -60.760, 4.802, -11.368,, 0.64676, -0.29126, -0.05463, -0.7027,
 13:32:14.911,d3:c7:8d:a5:a9:b5, 2015-01-01 00:15:09.530, 0.569, -0.358, 0.985, -0.122, -0.671, -0.244, -20.001, -28.685, -89.539, -60.760, 4.802, -11.368,, 0.64676, -0.29126, -0.05463, -0.7027,
 13:32:14.941,d3:c7:8d:a5:a9:b5, 2015-01-01 00:15:09.530, 0.569, -0.359, 0.984, -0.183, -0.61, -0.183, -20.001, -28.691, -89.539, -60.760, 4.704, -11.368,, 0.64676, -0.29126, -0.05463, -0.7027,
 13:32:14.941,d3:c7:8d:a5:a9:b5, 2015-01-01 00:15:09.530, 0.569, -0.359, 0.984, -0.183, -0.61, -0.183, -20.006, -28.696, -89.539, -60.760, 4.704, -11.368,, 0.64676, -0.29126, -0.05463, -0.7027,
 13:32:14.941,d3:c7:8d:a5:a9:b5, 2015-01-01 00:15:09.530, 0.569, -0.357, 0.984, -0.366, -0.854, -0.061, -20.006, -28.702, -89.533, -60.760, 4.704, -11.368,, 0.64676, -0.29126, -0.05463, -0.7027,
 13:32:14.941,d3:c7:8d:a5:a9:b5, 2015-01-01 00:15:09.530, 0.574, -0.357, 0.984, -0.366, -0.854, -0.061, -20.012, -28.707, -89.528, -60.760, 4.704, -11.368,, 0.64676, -0.29126, -0.05463, -0.7027,
 13:32:15.000,d3:c7:8d:a5:a9:b5, 2015-01-01 00:15:09.530, 0.574, -0.361, 0.984, -0.305, -0.793, -0.122, -20.017, -28.718, -89.528, -60.760, 4.704, -11.368,, 0.64676, -0.29126, -0.05463, -0.7027,
 13:32:15.000,d3:c7:8d:a5:a9:b5, 2015-01-01 00:15:09.530, 0.577, -0.361, 0.984, -0.305, -0.793, -0.122, -20.023, -28.724, -89.522, -60.760, 4.704, -11.368,, 0.64676, -0.29126, -0.05463, -0.7027,
 13:32:15.000,d3:c7:8d:a5:a9:b5, 2015-01-01 00:15:09.530, 0.577, -0.362, 0.982, -0.122, 0, -0.183, -20.023, -28.724, -89.522, -60.760, 4.704, -11.368,, 0.64676, -0.29126, -0.05463, -0.7027,
 13:32:15.001,d3:c7:8d:a5:a9:b5, 2015-01-01 00:15:09.530, 0.568, -0.362, 0.982, -0.122, 0, -0.183, -20.023, -28.724, -89.522, -60.760, 4.704, -11.368,, 0.64676, -0.29126, -0.05463, -0.7027,
 13:32:15.031,d3:c7:8d:a5:a9:b5, 2015-01-01 00:15:09.530, 0.568, -0.356, 0.984, 0, 0.122, -0.061, -20.023, -28.724, -89.522, -60.760, 4.704, -11.368,, 0.64694, -0.2916, -0.05484, -0.70236,
 13:32:15.031,d3:c7:8d:a5:a9:b5, 2015-01-01 00:15:09.530, 0.57, -0.356, 0.984, 0, 0.122, -0.061, -20.023, -28.724, -89.522, -60.760, 4.704, -11.368,, 0.64694, -0.2916, -0.05484, -0.70236,
 13:32:15.031,d3:c7:8d:a5:a9:b5, 2015-01-01 00:15:09.530, 0.57, -0.36, 0.982, -0.244, -0.671, 0, -20.028, -28.724, -89.522, -60.760, 4.704, -11.368,, 0.64694, -0.2916, -0.05484, -0.70236,
 13:32:15.031,d3:c7:8d:a5:a9:b5, 2015-01-01 00:15:09.530, 0.571, -0.36, 0.982, -0.244, -0.671, 0, -20.028, -28.729, -89.517, -60.760, 4.704, -11.368,, 0.64694, -0.2916, -0.05484, -0.70236,
 13:32:15.060,d3:c7:8d:a5:a9:b5, 2015-01-01 00:15:09.530, 0.571, -0.359, 0.983, 0, -0.427, -0.061, -20.034, -28.735, -89.517, -60.760, 4.704, -11.368,, 0.64694, -0.2916, -0.05484, -0.70236,
 13:32:15.060,d3:c7:8d:a5:a9:b5, 2015-01-01 00:15:09.530, 0.573, -0.359, 0.983, 0, -0.427, -0.061, -20.034, -28.74, -89.517, -60.760, 4.704, -11.368,, 0.64694, -0.2916, -0.05484, -0.70236,
 13:32:15.060,d3:c7:8d:a5:a9:b5, 2015-01-01 00:15:09.530, 0.573, -0.359, 0.983, 0, -0.61, -0.122, -20.034, -28.74, -89.511, -60.760, 4.704, -11.368,, 0.64694, -0.2916, -0.05484, -0.70236,
 13:32:15.060,d3:c7:8d:a5:a9:b5, 2015-01-01 00:15:09.530, 0.573, -0.359, 0.983, 0, -0.61, -0.122, -20.034, -28.746, -89.511, -60.760, 4.704, -11.368,, 0.64694, -0.2916, -0.05484, -0.70236,
 13:32:15.122,d3:c7:8d:a5:a9:b5, 2015-01-01 00:15:09.945, 0.573, -0.36, 0.984, 0, 0.122, -0.061, -20.034, -28.751, -89.511, -60.760, 4.704, -11.368,, 0.64694, -0.2916, -0.05484, -0.70236,
 13:32:15.122,d3:c7:8d:a5:a9:b5, 2015-01-01 00:15:09.945, 0.569, -0.36, 0.984, 0, 0.122, -0.061, -20.034, -28.746, -89.511, -60.760, 4.704, -11.368,, 0.64694, -0.2916, -0.05484, -0.70236,
 13:32:15.122,d3:c7:8d:a5:a9:b5, 2015-01-01 00:15:09.945, 0.569, -0.359, 0.983, 0, 0.244, 0, -20.034, -28.746, -89.511, -60.760, 4.704, -11.368,, 0.64694, -0.2916, -0.05484, -0.70236,
 13:32:15.122,d3:c7:8d:a5:a9:b5, 2015-01-01 00:15:09.945, 0.569, -0.359, 0.983, 0, 0.244, 0, -20.034, -28.74, -89.511, -60.760, 4.704, -11.368,, 0.64694, -0.2916, -0.05484, -0.70236,
 13:32:15.149,d3:c7:8d:a5:a9:b5, 2015-01-01 00:15:09.945, 0.569, -0.359, 0.985, -0.122, -0.061, 0, -20.034, -28.74, -89.511, -60.760, 4.704, -11.368,, 0.64694, -0.2916, -0.05484, -0.70236,
 13:32:15.149,d3:c7:8d:a5:a9:b5, 2015-01-01 00:15:09.945, 0.572, -0.359, 0.985, -0.122, -0.061, 0, -20.039, -28.74, -89.506, -60.760, 4.704, -11.368,, 0.64694, -0.2916, -0.05484, -0.70236,
 13:32:15.149,d3:c7:8d:a5:a9:b5, 2015-01-01 00:15:09.945, 0.572, -0.359, 0.982, 0, -0.122, 0, -20.039, -28.74, -89.506, -60.760, 4.704, -11.368,, 0.64694, -0.2916, -0.05484, -0.70236,
 13:32:15.149,d3:c7:8d:a5:a9:b5, 2015-01-01 00:15:09.945, 0.574, -0.359, 0.982, 0, -0.122, 0, -20.039, -28.74, -89.506, -60.760, 4.704, -11.368,, 0.64694, -0.2916, -0.05484, -0.70236,
 13:32:15.180,d3:c7:8d:a5:a9:b5, 2015-01-01 00:15:09.945, 0.574, -0.359, 0.985, -0.061, 0.183, 0, -20.039, -28.74, -89.506, -60.760, 4.704, -11.368,, 0.64694, -0.2916, -0.05484, -0.70236,
 13:32:15.180,d3:c7:8d:a5:a9:b5, 2015-01-01 00:15:09.945, 0.572, -0.359, 0.985, -0.061, 0.183, 0, -20.039, -28.735, -89.506, -60.760, 4.704, -11.368,, 0.64694, -0.2916, -0.05484, -0.70236,
 13:32:15.180,d3:c7:8d:a5:a9:b5, 2015-01-01 00:15:09.945, 0.572, -0.359, 0.982, 0, 0.488, 0, -20.039, -28.729, -89.506, -60.760, 4.704, -11.368,, 0.64694, -0.2916, -0.05484, -0.70236,
 13:32:15.180,d3:c7:8d:a5:a9:b5, 2015-01-01 00:15:09.945, 0.567, -0.359, 0.982, 0, 0.488, 0, -20.039, -28.724, -89.506, -60.760, 4.704, -11.368,, 0.64694, -0.2916, -0.05484, -0.70236,
 13:32:15.240,d3:c7:8d:a5:a9:b5, 2015-01-01 00:15:09.945, 0.567, -0.358, 0.982, 0.061, 0.061, 0, -20.039, -28.724, -89.506, -60.760, 4.704, -11.368,, 0.64694, -0.2916, -0.05484, -0.70236,
 13:32:15.240,d3:c7:8d:a5:a9:b5, 2015-01-01 00:15:09.945, 0.569, -0.358, 0.982, 0.061, 0.061, 0, -20.039, -28.724, -89.506, -60.760, 4.704, -11.368,, 0.64694, -0.2916, -0.05484, -0.70236,
 13:32:15.240,d3:c7:8d:a5:a9:b5, 2015-01-01 00:15:09.945, 0.569, -0.358, 0.984, 0.061, -0.488, 0, -20.039, -28.729, -89.5, -60.760, 4.704, -11.368,, 0.64694, -0.2916, -0.05484, -0.70236,
 13:32:15.240,d3:c7:8d:a5:a9:b5, 2015-01-01 00:15:09.945, 0.575, -0.358, 0.984, 0.061, -0.488, 0, -20.039, -28.729, -89.5, -60.760, 4.704, -11.368,, 0.64694, -0.2916, -0.05484, -0.70236,
 13:32:15.273,d3:c7:8d:a5:a9:b5, 2015-01-01 00:15:09.945, 0.575, -0.359, 0.983, 0, -0.305, 0, -20.039, -28.735, -89.495, -60.760, 4.704, -11.368,, 0.64694, -0.2916, -0.05484, -0.70236,
 13:32:15.273,d3:c7:8d:a5:a9:b5, 2015-01-01 00:15:09.945, 0.57, -0.359, 0.983, 0, -0.305, 0, -20.039, -28.735, -89.495, -60.760, 4.704, -11.368,, 0.64694, -0.2916, -0.05484, -0.70236,
 13:32:15.273,d3:c7:8d:a5:a9:b5, 2015-01-01 00:15:09.945, 0.57, -0.359, 0.983, 0.061, 0.122, 0, -20.039, -28.735, -89.495, -60.760, 4.704, -11.368,, 0.64694, -0.2916, -0.05484, -0.70236,
 13:32:15.273,d3:c7:8d:a5:a9:b5, 2015-01-01 00:15:09.945, 0.567, -0.359, 0.983, 0.061, 0.122, 0, -20.039, -28.729, -89.495, -60.760, 4.704, -11.368,, 0.64694, -0.2916, -0.05484, -0.70236,
 13:32:15.300,d3:c7:8d:a5:a9:b5, 2015-01-01 00:15:09.945, 0.567, -0.359, 0.984, 0, -0.122, 0, -20.039, -28.735, -89.495, -60.858, 4.802, -11.270,, 0.64694, -0.2916, -0.05484, -0.70236,
 13:32:15.300,d3:c7:8d:a5:a9:b5, 2015-01-01 00:15:09.945, 0.569, -0.359, 0.984, 0, -0.122, 0, -20.039, -28.735, -89.489, -60.858, 4.802, -11.270,, 0.64694, -0.2916, -0.05484, -0.70236,
 13:32:15.300,d3:c7:8d:a5:a9:b5, 2015-01-01 00:15:09.945, 0.569, -0.358, 0.984, -0.122, -0.793, 0, -20.039, -28.74, -89.489, -60.858, 4.802, -11.270,, 0.64694, -0.2916, -0.05484, -0.70236,
 13:32:15.300,d3:c7:8d:a5:a9:b5, 2015-01-01 00:15:09.945, 0.573, -0.358, 0.984, -0.122, -0.793, 0, -20.045, -28.746, -89.484, -60.858, 4.802, -11.270,, 0.64694, -0.2916, -0.05484, -0.70236,
 13:32:15.360,d3:c7:8d:a5:a9:b5, 2015-01-01 00:15:09.945, 0.573, -0.36, 0.983, -0.305, -0.366, 0, -20.05, -28.746, -89.484, -60.858, 4.802, -11.270,, 0.64694, -0.2916, -0.05484, -0.70236,
 13:32:15.360,d3:c7:8d:a5:a9:b5, 2015-01-01 00:15:09.945, 0.572, -0.36, 0.983, -0.305, -0.366, 0, -20.05, -28.751, -89.478, -60.858, 4.802, -11.270,, 0.64694, -0.2916, -0.05484, -0.70236,
 13:32:15.360,d3:c7:8d:a5:a9:b5, 2015-01-01 00:15:09.945, 0.572, -0.359, 0.982, -0.122, -0.366, 0, -20.056, -28.751, -89.478, -60.858, 4.802, -11.270,, 0.64694, -0.2916, -0.05484, -0.70236,
 13:32:15.360,d3:c7:8d:a5:a9:b5, 2015-01-01 00:15:09.945, 0.576, -0.359, 0.982, -0.122, -0.366, 0, -20.056, -28.757, -89.473, -60.858, 4.802, -11.270,, 0.64694, -0.2916, -0.05484, -0.70236,
 13:32:15.390,d3:c7:8d:a5:a9:b5, 2015-01-01 00:15:09.945, 0.576, -0.361, 0.982, 0, 0, 0, -20.056, -28.757, -89.473, -60.858, 4.802, -11.270,, 0.64709, -0.2919, -0.05493, -0.70212,
 13:32:15.390,d3:c7:8d:a5:a9:b5, 2015-01-01 00:15:09.945, 0.572, -0.361, 0.982, 0, 0, 0, -20.056, -28.751, -89.473, -60.858, 4.802, -11.270,, 0.64709, -0.2919, -0.05493, -0.70212,
 13:32:15.390,d3:c7:8d:a5:a9:b5, 2015-01-01 00:15:09.945, 0.572, -0.359, 0.984, 0.244, 0.305, 0, -20.056, -28.751, -89.473, -60.858, 4.802, -11.270,, 0.64709, -0.2919, -0.05493, -0.70212,
 13:32:15.390,d3:c7:8d:a5:a9:b5, 2015-01-01 00:15:09.945, 0.57, -0.359, 0.984, 0.244, 0.305, 0, -20.05, -28.746, -89.473, -60.858, 4.802, -11.270,, 0.64709, -0.2919, -0.05493, -0.70212,
 13:32:15.422,d3:c7:8d:a5:a9:b5, 2015-01-01 00:15:09.945, 0.57, -0.358, 0.984, -0.061, 0.244, 0, -20.05, -28.746, -89.473, -60.858, 4.802, -11.270,, 0.64709, -0.2919, -0.05493, -0.70212,
 13:32:15.422,d3:c7:8d:a5:a9:b5, 2015-01-01 00:15:09.945, 0.568, -0.358, 0.984, -0.061, 0.244, 0, -20.05, -28.74, -89.473, -60.858, 4.802, -11.270,, 0.64709, -0.2919, -0.05493, -0.70212,
 13:32:15.422,d3:c7:8d:a5:a9:b5, 2015-01-01 00:15:09.945, 0.568, -0.358, 0.983, 0, -0.244, 0, -20.05, -28.74, -89.473, -60.858, 4.802, -11.270,, 0.64709, -0.2919, -0.05493, -0.70212,
 13:32:15.422,d3:c7:8d:a5:a9:b5, 2015-01-01 00:15:09.945, 0.573, -0.358, 0.983, 0, -0.244, 0, -20.05, -28.746, -89.473, -60.858, 4.802, -11.270,, 0.64709, -0.2919, -0.05493, -0.70212,
 13:32:15.480,d3:c7:8d:a5:a9:b5, 2015-01-01 00:15:10.305, 0.573, -0.36, 0.983, -0.183, -0.61, 0, -20.056, -28.751, -89.467, -60.858, 4.802, -11.270,, 0.64709, -0.2919, -0.05493, -0.70212,
 13:32:15.480,d3:c7:8d:a5:a9:b5, 2015-01-01 00:15:10.305, 0.573, -0.36, 0.983, -0.183, -0.61, 0, -20.061, -28.751, -89.462, -60.858, 4.802, -11.270,, 0.64709, -0.2919, -0.05493, -0.70212,
 13:32:15.480,d3:c7:8d:a5:a9:b5, 2015-01-01 00:15:10.305, 0.573, -0.36, 0.983, 0.122, 0.061, 0, -20.056, -28.751, -89.462, -60.858, 4.802, -11.270,, 0.64709, -0.2919, -0.05493, -0.70212,
 13:32:15.480,d3:c7:8d:a5:a9:b5, 2015-01-01 00:15:10.305, 0.572, -0.36, 0.983, 0.122, 0.061, 0, -20.056, -28.751, -89.462, -60.858, 4.802, -11.270,, 0.64709, -0.2919, -0.05493, -0.70212,
 13:32:15.510,d3:c7:8d:a5:a9:b5, 2015-01-01 00:15:10.305, 0.572, -0.36, 0.985, 0, 0.183, 0, -20.056, -28.746, -89.462, -60.858, 4.802, -11.270,, 0.64709, -0.2919, -0.05493, -0.70212,
 13:32:15.510,d3:c7:8d:a5:a9:b5, 2015-01-01 00:15:10.305, 0.572, -0.36, 0.985, 0, 0.183, 0, -20.056, -28.746, -89.462, -60.858, 4.802, -11.270,, 0.64709, -0.2919, -0.05493, -0.70212,
 13:32:15.510,d3:c7:8d:a5:a9:b5, 2015-01-01 00:15:10.305, 0.572, -0.359, 0.983, 0, 0.549, 0, -20.056, -28.74, -89.462, -60.858, 4.802, -11.270,, 0.64709, -0.2919, -0.05493, -0.70212,
 13:32:15.510,d3:c7:8d:a5:a9:b5, 2015-01-01 00:15:10.305, 0.568, -0.359, 0.983, 0, 0.549, 0, -20.056, -28.735, -89.467, -60.858, 4.802, -11.270,, 0.64709, -0.2919, -0.05493, -0.70212,
 13:32:15.539,d3:c7:8d:a5:a9:b5, 2015-01-01 00:15:10.305, 0.568, -0.358, 0.984, 0, 0.244, 0, -20.056, -28.729, -89.467, -60.858, 4.802, -11.270,, 0.64709, -0.2919, -0.05493, -0.70212,
 13:32:15.539,d3:c7:8d:a5:a9:b5, 2015-01-01 00:15:10.305, 0.568, -0.358, 0.984, 0, 0.244, 0, -20.056, -28.729, -89.467, -60.858, 4.802, -11.270,, 0.64709, -0.2919, -0.05493, -0.70212,
 13:32:15.539,d3:c7:8d:a5:a9:b5, 2015-01-01 00:15:10.305, 0.568, -0.36, 0.983, 0, -0.183, 0, -20.056, -28.729, -89.467, -60.858, 4.802, -11.270,, 0.64709, -0.2919, -0.05493, -0.70212,
 13:32:15.539,d3:c7:8d:a5:a9:b5, 2015-01-01 00:15:10.305, 0.574, -0.36, 0.983, 0, -0.183, 0, -20.056, -28.729, -89.462, -60.858, 4.802, -11.270,, 0.64709, -0.2919, -0.05493, -0.70212,
 13:32:15.600,d3:c7:8d:a5:a9:b5, 2015-01-01 00:15:10.305, 0.573, -0.36, 0.984, -0.061, -0.061, 0, -20.056, -28.729, -89.462, -60.858, 4.802, -11.270,, 0.64709, -0.2919, -0.05493, -0.70212,
 13:32:15.600,d3:c7:8d:a5:a9:b5, 2015-01-01 00:15:10.305, 0.573, -0.359, 0.983, 0, 0.366, 0, -20.056, -28.729, -89.462, -60.858, 4.802, -11.270,, 0.64709, -0.2919, -0.05493, -0.70212,
 13:32:15.600,d3:c7:8d:a5:a9:b5, 2015-01-01 00:15:10.305, 0.567, -0.359, 0.983, 0, 0.366, 0, -20.056, -28.724, -89.462, -60.858, 4.802, -11.270,, 0.64709, -0.2919, -0.05493, -0.70212,
 13:32:15.600,d3:c7:8d:a5:a9:b5, 2015-01-01 00:15:10.305, 0.567, -0.358, 0.982, 0, 0, 0, -20.056, -28.724, -89.462, -60.858, 4.802, -11.270,, 0.64709, -0.2919, -0.05493, -0.70212,
 13:32:15.630,d3:c7:8d:a5:a9:b5, 2015-01-01 00:15:10.305, 0.572, -0.358, 0.982, 0, 0, 0, -20.056, -28.718, -89.462, -60.858, 4.802, -11.270,, 0.64709, -0.2919, -0.05493, -0.70212,
 13:32:15.630,d3:c7:8d:a5:a9:b5, 2015-01-01 00:15:10.305, 0.572, -0.359, 0.983, 0, -0.488, 0, -20.056, -28.724, -89.462, -60.858, 4.802, -11.270,, 0.64709, -0.2919, -0.05493, -0.70212,
 13:32:15.630,d3:c7:8d:a5:a9:b5, 2015-01-01 00:15:10.305, 0.572, -0.359, 0.983, 0, -0.488, 0, -20.056, -28.724, -89.456, -60.858, 4.802, -11.270,, 0.64709, -0.2919, -0.05493, -0.70212,
 13:32:15.630,d3:c7:8d:a5:a9:b5, 2015-01-01 00:15:10.305, 0.572, -0.36, 0.985, 0, -0.061, 0, -20.056, -28.729, -89.456, -60.858, 4.802, -11.270,, 0.64709, -0.2919, -0.05493, -0.70212,
 13:32:15.660,d3:c7:8d:a5:a9:b5, 2015-01-01 00:15:10.305, 0.572, -0.36, 0.985, 0, -0.061, 0, -20.056, -28.729, -89.456, -60.760, 4.704, -11.368,, 0.64709, -0.2919, -0.05493, -0.70212,
 13:32:15.660,d3:c7:8d:a5:a9:b5, 2015-01-01 00:15:10.305, 0.572, -0.359, 0.983, -0.061, 0.183, 0, -20.056, -28.724, -89.456, -60.760, 4.704, -11.368,, 0.64709, -0.2919, -0.05493, -0.70212,
 13:32:15.660,d3:c7:8d:a5:a9:b5, 2015-01-01 00:15:10.305, 0.569, -0.359, 0.983, -0.061, 0.183, 0, -20.056, -28.724, -89.456, -60.760, 4.704, -11.368,, 0.64709, -0.2919, -0.05493, -0.70212,
 13:32:15.660,d3:c7:8d:a5:a9:b5, 2015-01-01 00:15:10.305, 0.569, -0.357, 0.983, 0.122, 0.427, 0, -20.056, -28.718, -89.456, -60.760, 4.704, -11.368,, 0.64709, -0.2919, -0.05493, -0.70212,
 13:32:15.720,d3:c7:8d:a5:a9:b5, 2015-01-01 00:15:10.305, 0.564, -0.357, 0.983, 0.122, 0.427, 0, -20.056, -28.713, -89.456, -60.760, 4.704, -11.368,, 0.64709, -0.2919, -0.05493, -0.70212,
 13:32:15.720,d3:c7:8d:a5:a9:b5, 2015-01-01 00:15:10.305, 0.564, -0.359, 0.984, -0.244, -0.488, 0, -20.056, -28.713, -89.456, -60.760, 4.704, -11.368,, 0.64709, -0.2919, -0.05493, -0.70212,
 13:32:15.720,d3:c7:8d:a5:a9:b5, 2015-01-01 00:15:10.305, 0.573, -0.359, 0.984, -0.244, -0.488, 0, -20.061, -28.718, -89.451, -60.760, 4.704, -11.368,, 0.64709, -0.2919, -0.05493, -0.70212,
 13:32:15.720,d3:c7:8d:a5:a9:b5, 2015-01-01 00:15:10.305, 0.573, -0.36, 0.985, -0.122, -0.732, 0, -20.061, -28.724, -89.451, -60.760, 4.704, -11.368,, 0.64709, -0.2919, -0.05493, -0.70212,
 13:32:15.750,d3:c7:8d:a5:a9:b5, 2015-01-01 00:15:10.305, 0.573, -0.36, 0.985, -0.122, -0.732, 0, -20.067, -28.729, -89.445, -60.760, 4.704, -11.368,, 0.64731, -0.29169, -0.05475, -0.702,
 13:32:15.750,d3:c7:8d:a5:a9:b5, 2015-01-01 00:15:10.305, 0.573, -0.359, 0.982, 0, -0.305, 0, -20.067, -28.735, -89.445, -60.760, 4.704, -11.368,, 0.64731, -0.29169, -0.05475, -0.702,
 13:32:15.750,d3:c7:8d:a5:a9:b5, 2015-01-01 00:15:10.305, 0.572, -0.359, 0.982, 0, -0.305, 0, -20.067, -28.735, -89.44, -60.760, 4.704, -11.368,, 0.64731, -0.29169, -0.05475, -0.702,
 13:32:15.750,d3:c7:8d:a5:a9:b5, 2015-01-01 00:15:10.305, 0.572, -0.36, 0.984, 0, 0, 0, -20.067, -28.735, -89.44, -60.760, 4.704, -11.368,, 0.64731, -0.29169, -0.05475, -0.702,
 13:32:15.781,d3:c7:8d:a5:a9:b5, 2015-01-01 00:15:10.305, 0.572, -0.36, 0.984, 0, 0, 0, -20.067, -28.735, -89.44, -60.760, 4.704, -11.368,, 0.64731, -0.29169, -0.05475, -0.702,
 13:32:15.781,d3:c7:8d:a5:a9:b5, 2015-01-01 00:15:10.305, 0.572, -0.36, 0.982, 0.122, 0, 0, -20.067, -28.735, -89.44, -60.760, 4.704, -11.368,, 0.64731, -0.29169, -0.05475, -0.702,
 13:32:15.781,d3:c7:8d:a5:a9:b5, 2015-01-01 00:15:10.305, 0.568, -0.36, 0.982, 0.122, 0, 0, -20.067, -28.735, -89.44, -60.760, 4.704, -11.368,, 0.64731, -0.29169, -0.05475, -0.702,
 13:32:15.781,d3:c7:8d:a5:a9:b5, 2015-01-01 00:15:10.305, 0.568, -0.358, 0.982, 0.366, -0.305, -0.305, -20.061, -28.735, -89.44, -60.760, 4.704, -11.368,, 0.64731, -0.29169, -0.05475, -0.702,
 13:32:15.840,d3:c7:8d:a5:a9:b5, 2015-01-01 00:15:10.660, 0.568, -0.358, 0.982, 0.366, -0.305, -0.305, -20.056, -28.735, -89.44, -60.760, 4.704, -11.368,, 0.64731, -0.29169, -0.05475, -0.702,
 13:32:15.840,d3:c7:8d:a5:a9:b5, 2015-01-01 00:15:10.660, 0.568, -0.358, 0.984, 0.183, -0.854, -0.305, -20.056, -28.74, -89.44, -60.760, 4.704, -11.368,, 0.64731, -0.29169, -0.05475, -0.702,
 13:32:15.840,d3:c7:8d:a5:a9:b5, 2015-01-01 00:15:10.660, 0.573, -0.358, 0.984, 0.183, -0.854, -0.305, -20.056, -28.751, -89.44, -60.760, 4.704, -11.368,, 0.64731, -0.29169, -0.05475, -0.702,
 13:32:15.840,d3:c7:8d:a5:a9:b5, 2015-01-01 00:15:10.660, 0.573, -0.359, 0.983, 0, -0.977, -0.244, -20.05, -28.757, -89.44, -60.760, 4.704, -11.368,, 0.64731, -0.29169, -0.05475, -0.702,
 13:32:15.870,d3:c7:8d:a5:a9:b5, 2015-01-01 00:15:10.660, 0.573, -0.359, 0.983, 0, -0.977, -0.244, -20.056, -28.768, -89.434, -60.760, 4.704, -11.368,, 0.64731, -0.29169, -0.05475, -0.702,
 13:32:15.870,d3:c7:8d:a5:a9:b5, 2015-01-01 00:15:10.660, 0.573, -0.36, 0.983, 0.305, -0.488, -0.305, -20.05, -28.773, -89.434, -60.760, 4.704, -11.368,, 0.64731, -0.29169, -0.05475, -0.702,
 13:32:15.870,d3:c7:8d:a5:a9:b5, 2015-01-01 00:15:10.660, 0.57, -0.36, 0.983, 0.305, -0.488, -0.305, -20.05, -28.779, -89.44, -60.760, 4.704, -11.368,, 0.64731, -0.29169, -0.05475, -0.702,
 13:32:15.870,d3:c7:8d:a5:a9:b5, 2015-01-01 00:15:10.660, 0.57, -0.357, 0.983, 0.183, -0.61, -0.244, -20.045, -28.784, -89.44, -60.760, 4.704, -11.368,, 0.64731, -0.29169, -0.05475, -0.702,
 13:32:15.901,d3:c7:8d:a5:a9:b5, 2015-01-01 00:15:10.660, 0.575, -0.357, 0.983, 0.183, -0.61, -0.244, -20.045, -28.79, -89.434, -60.760, 4.704, -11.368,, 0.64731, -0.29169, -0.05475, -0.702,
 13:32:15.901,d3:c7:8d:a5:a9:b5, 2015-01-01 00:15:10.660, 0.575, -0.359, 0.985, 0, -0.183, 0, -20.045, -28.795, -89.434, -60.760, 4.704, -11.368,, 0.64731, -0.29169, -0.05475, -0.702,
 13:32:15.902,d3:c7:8d:a5:a9:b5, 2015-01-01 00:15:10.660, 0.575, -0.359, 0.985, 0, -0.183, 0, -20.045, -28.795, -89.434, -60.760, 4.704, -11.368,, 0.64731, -0.29169, -0.05475, -0.702,
 13:32:15.902,d3:c7:8d:a5:a9:b5, 2015-01-01 00:15:10.660, 0.575, -0.358, 0.983, -0.061, 0.488, 0.122, -20.045, -28.79, -89.434, -60.760, 4.704, -11.368,, 0.64731, -0.29169, -0.05475, -0.702,
 13:32:15.961,d3:c7:8d:a5:a9:b5, 2015-01-01 00:15:10.660, 0.569, -0.358, 0.983, -0.061, 0.488, 0.122, -20.045, -28.784, -89.434, -60.760, 4.704, -11.368,, 0.64731, -0.29169, -0.05475, -0.702,
 13:32:15.961,d3:c7:8d:a5:a9:b5, 2015-01-01 00:15:10.660, 0.569, -0.359, 0.983, 0, 0.61, 0.061, -20.045, -28.779, -89.434, -60.760, 4.704, -11.368,, 0.64731, -0.29169, -0.05475, -0.702,
 13:32:15.961,d3:c7:8d:a5:a9:b5, 2015-01-01 00:15:10.660, 0.568, -0.359, 0.983, 0, 0.61, 0.061, -20.045, -28.773, -89.434, -60.760, 4.704, -11.368,, 0.64731, -0.29169, -0.05475, -0.702,
 13:32:15.961,d3:c7:8d:a5:a9:b5, 2015-01-01 00:15:10.660, 0.568, -0.358, 0.984, 0, 0, 0, -20.045, -28.768, -89.434, -60.760, 4.704, -11.368,, 0.64731, -0.29169, -0.05475, -0.702,
 13:32:15.991,d3:c7:8d:a5:a9:b5, 2015-01-01 00:15:10.660, 0.575, -0.358, 0.984, 0, 0, 0, -20.045, -28.768, -89.434, -60.760, 4.704, -11.368,, 0.64731, -0.29169, -0.05475, -0.702,
 13:32:15.991,d3:c7:8d:a5:a9:b5, 2015-01-01 00:15:10.660, 0.575, -0.36, 0.983, -0.183, 0.122, 0, -20.045, -28.768, -89.434, -60.760, 4.704, -11.368,, 0.64731, -0.29169, -0.05475, -0.702,
 13:32:15.991,d3:c7:8d:a5:a9:b5, 2015-01-01 00:15:10.660, 0.571, -0.36, 0.983, -0.183, 0.122, 0, -20.045, -28.768, -89.434, -60.760, 4.704, -11.368,, 0.64731, -0.29169, -0.05475, -0.702,
 13:32:15.991,d3:c7:8d:a5:a9:b5, 2015-01-01 00:15:10.660, 0.571, -0.358, 0.982, 0, 0.427, 0.061, -20.045, -28.762, -89.434, -60.760, 4.704, -11.368,, 0.64731, -0.29169, -0.05475, -0.702,
 13:32:16.021,d3:c7:8d:a5:a9:b5, 2015-01-01 00:15:10.660, 0.57, -0.358, 0.982, 0, 0.427, 0.061, -20.045, -28.757, -89.434, -60.858, 4.704, -11.172,, 0.64731, -0.29169, -0.05475, -0.702,
 13:32:16.021,d3:c7:8d:a5:a9:b5, 2015-01-01 00:15:10.660, 0.57, -0.358, 0.984, -0.122, 0.183, 0.061, -20.045, -28.757, -89.434, -60.858, 4.704, -11.172,, 0.64731, -0.29169, -0.05475, -0.702,
 13:32:16.021,d3:c7:8d:a5:a9:b5, 2015-01-01 00:15:10.660, 0.572, -0.358, 0.984, -0.122, 0.183, 0.061, -20.05, -28.751, -89.434, -60.858, 4.704, -11.172,, 0.64731, -0.29169, -0.05475, -0.702,
 13:32:16.021,d3:c7:8d:a5:a9:b5, 2015-01-01 00:15:10.660, 0.572, -0.36, 0.983, 0, 0.244, 0, -20.05, -28.751, -89.434, -60.858, 4.704, -11.172,, 0.64731, -0.29169, -0.05475, -0.702,
 13:32:16.081,d3:c7:8d:a5:a9:b5, 2015-01-01 00:15:10.660, 0.567, -0.36, 0.983, 0, 0.244, 0, -20.045, -28.746, -89.434, -60.858, 4.704, -11.172,, 0.64731, -0.29169, -0.05475, -0.702,
 13:32:16.081,d3:c7:8d:a5:a9:b5, 2015-01-01 00:15:10.660, 0.567, -0.358, 0.985, 0.061, 0, 0, -20.045, -28.746, -89.434, -60.858, 4.704, -11.172,, 0.64731, -0.29169, -0.05475, -0.702,
 13:32:16.081,d3:c7:8d:a5:a9:b5, 2015-01-01 00:15:10.660, 0.569, -0.358, 0.985, 0.061, 0, 0, -20.045, -28.746, -89.434, -60.858, 4.704, -11.172,, 0.64731, -0.29169, -0.05475, -0.702,
 13:32:16.081,d3:c7:8d:a5:a9:b5, 2015-01-01 00:15:10.660, 0.569, -0.36, 0.982, 0.122, -0.61, -0.122, -20.045, -28.751, -89.434, -60.858, 4.704, -11.172,, 0.64731, -0.29169, -0.05475, -0.702,
 13:32:16.110,d3:c7:8d:a5:a9:b5, 2015-01-01 00:15:10.660, 0.57, -0.36, 0.982, 0.122, -0.61, -0.122, -20.045, -28.757, -89.429, -60.858, 4.704, -11.172,, 0.64737, -0.29181, -0.05502, -0.70187,
 13:32:16.110,d3:c7:8d:a5:a9:b5, 2015-01-01 00:15:10.660, 0.57, -0.358, 0.983, 0.183, -0.732, -0.122, -20.045, -28.762, -89.429, -60.858, 4.704, -11.172,, 0.64737, -0.29181, -0.05502, -0.70187,
 13:32:16.110,d3:c7:8d:a5:a9:b5, 2015-01-01 00:15:10.660, 0.572, -0.358, 0.983, 0.183, -0.732, -0.122, -20.045, -28.768, -89.429, -60.858, 4.704, -11.172,, 0.64737, -0.29181, -0.05502, -0.70187,
 13:32:16.110,d3:c7:8d:a5:a9:b5, 2015-01-01 00:15:10.660, 0.572, -0.358, 0.984, 0.061, -0.854, -0.122, -20.045, -28.773, -89.423, -60.858, 4.704, -11.172,, 0.64737, -0.29181, -0.05502, -0.70187,
 13:32:16.141,d3:c7:8d:a5:a9:b5, 2015-01-01 00:15:10.660, 0.574, -0.358, 0.984, 0.061, -0.854, -0.122, -20.045, -28.784, -89.423, -60.858, 4.704, -11.172,, 0.64737, -0.29181, -0.05502, -0.70187,
 13:32:16.141,d3:c7:8d:a5:a9:b5, 2015-01-01 00:15:10.660, 0.574, -0.358, 0.985, -0.122, -0.488, -0.122, -20.045, -28.784, -89.423, -60.858, 4.704, -11.172,, 0.64737, -0.29181, -0.05502, -0.70187,
 13:32:16.141,d3:c7:8d:a5:a9:b5, 2015-01-01 00:15:10.660, 0.569, -0.358, 0.985, -0.122, -0.488, -0.122, -20.045, -28.79, -89.418, -60.858, 4.704, -11.172,, 0.64737, -0.29181, -0.05502, -0.70187,
 13:32:16.141,d3:c7:8d:a5:a9:b5, 2015-01-01 00:15:10.660, 0.569, -0.358, 0.982, -0.122, -0.488, 0, -20.05, -28.795, -89.418, -60.858, 4.704, -11.172,, 0.64737, -0.29181, -0.05502, -0.70187,
 13:32:16.201,d3:c7:8d:a5:a9:b5, 2015-01-01 00:15:11.020, 0.572, -0.358, 0.982, -0.122, -0.488, 0, -20.05, -28.795, -89.412, -60.858, 4.704, -11.172,, 0.64737, -0.29181, -0.05502, -0.70187,
 13:32:16.201,d3:c7:8d:a5:a9:b5, 2015-01-01 00:15:11.020, 0.572, -0.358, 0.984, -0.244, -0.793, 0, -20.056, -28.801, -89.412, -60.858, 4.704, -11.172,, 0.64737, -0.29181, -0.05502, -0.70187,
 13:32:16.201,d3:c7:8d:a5:a9:b5, 2015-01-01 00:15:11.020, 0.579, -0.358, 0.984, -0.244, -0.793, 0, -20.061, -28.812, -89.407, -60.858, 4.704, -11.172,, 0.64737, -0.29181, -0.05502, -0.70187,
 13:32:16.201,d3:c7:8d:a5:a9:b5, 2015-01-01 00:15:11.020, 0.579, -0.361, 0.985, -0.183, -0.549, -0.122, -20.061, -28.812, -89.407, -60.858, 4.704, -11.172,, 0.64737, -0.29181, -0.05502, -0.70187,
 13:32:16.230,d3:c7:8d:a5:a9:b5, 2015-01-01 00:15:11.020, 0.574, -0.361, 0.985, -0.183, -0.549, -0.122, -20.061, -28.817, -89.407, -60.858, 4.704, -11.172,, 0.64737, -0.29181, -0.05502, -0.70187,
 13:32:16.230,d3:c7:8d:a5:a9:b5, 2015-01-01 00:15:11.020, 0.574, -0.358, 0.981, -0.061, 0.366, -0.061, -20.061, -28.812, -89.407, -60.858, 4.704, -11.172,, 0.64737, -0.29181, -0.05502, -0.70187,
 13:32:16.230,d3:c7:8d:a5:a9:b5, 2015-01-01 00:15:11.020, 0.569, -0.358, 0.981, -0.061, 0.366, -0.061, -20.061, -28.812, -89.407, -60.858, 4.704, -11.172,, 0.64737, -0.29181, -0.05502, -0.70187,
 13:32:16.230,d3:c7:8d:a5:a9:b5, 2015-01-01 00:15:11.020, 0.569, -0.359, 0.982, -0.061, 0.183, 0, -20.061, -28.806, -89.407, -60.858, 4.704, -11.172,, 0.64737, -0.29181, -0.05502, -0.70187,
 13:32:16.259,d3:c7:8d:a5:a9:b5, 2015-01-01 00:15:11.020, 0.569, -0.359, 0.982, -0.061, 0.183, 0, -20.061, -28.806, -89.407, -60.858, 4.704, -11.172,, 0.64737, -0.29181, -0.05502, -0.70187,
 13:32:16.259,d3:c7:8d:a5:a9:b5, 2015-01-01 00:15:11.020, 0.569, -0.36, 0.984, 0, -0.427, -0.061, -20.061, -28.806, -89.407, -60.858, 4.704, -11.172,, 0.64737, -0.29181, -0.05502, -0.70187,
 13:32:16.259,d3:c7:8d:a5:a9:b5, 2015-01-01 00:15:11.020, 0.573, -0.36, 0.984, 0, -0.427, -0.061, -20.061, -28.812, -89.407, -60.858, 4.704, -11.172,, 0.64737, -0.29181, -0.05502, -0.70187,
 13:32:16.259,d3:c7:8d:a5:a9:b5, 2015-01-01 00:15:11.020, 0.573, -0.358, 0.982, 0, -0.488, 0, -20.067, -28.817, -89.401, -60.858, 4.704, -11.172,, 0.64737, -0.29181, -0.05502, -0.70187,
 13:32:16.321,d3:c7:8d:a5:a9:b5, 2015-01-01 00:15:11.020, 0.576, -0.358, 0.982, 0, -0.488, 0, -20.067, -28.817, -89.401, -60.858, 4.704, -11.172,, 0.64737, -0.29181, -0.05502, -0.70187,
 13:32:16.321,d3:c7:8d:a5:a9:b5, 2015-01-01 00:15:11.020, 0.576, -0.359, 0.984, 0, 0, 0, -20.067, -28.817, -89.401, -60.858, 4.704, -11.172,, 0.64737, -0.29181, -0.05502, -0.70187,
 13:32:16.321,d3:c7:8d:a5:a9:b5, 2015-01-01 00:15:11.020, 0.576, -0.359, 0.984, 0, 0, 0, -20.067, -28.817, -89.401, -60.858, 4.704, -11.172,, 0.64737, -0.29181, -0.05502, -0.70187,
 13:32:16.321,d3:c7:8d:a5:a9:b5, 2015-01-01 00:15:11.020, 0.576, -0.36, 0.983, 0.183, 0.305, 0.061, -20.061, -28.812, -89.401, -60.858, 4.704, -11.172,, 0.64737, -0.29181, -0.05502, -0.70187,
 13:32:16.350,d3:c7:8d:a5:a9:b5, 2015-01-01 00:15:11.020, 0.573, -0.36, 0.983, 0.183, 0.305, 0.061, -20.061, -28.812, -89.401, -60.858, 4.704, -11.172,, 0.64737, -0.29181, -0.05502, -0.70187,
