Time,Device name,Chip Time(),Acceleration X(g),Acceleration Y(g),Acceleration Z(g),Angular velocity X(°/s),Angular velocity Y(°/s),Angular velocity Z(°/s),Angle X(°),Angle Y(°),Angle Z(°),Magnetic field X(ʯt),Magnetic field Y(ʯt),Magnetic field Z(ʯt),Temperature(℃),Quaternions 0(),Quaternions 1(),Quaternions 2(),Quaternions 3()
 14:53:42.442,d3:c7:8d:a5:a9:b5, 2015-01-01 00:02:57.290, 0.001, -0.004, 0.999, -0.061, -0.366, 0, -0.187, 0.027, -101.047, -49.000, -9.604, -22.638,, 0.63571, -0.00107, 0.00125, -0.77188,
 14:53:42.445,d3:c7:8d:a5:a9:b5, 2015-01-01 00:02:57.290, 0.001, -0.006, 0.998, -0.183, -0.427, 0, -0.192, 0.027, -101.047, -49.000, -9.604, -22.638,, 0.63571, -0.00107, 0.00125, -0.77188,
 14:53:42.445,d3:c7:8d:a5:a9:b5, 2015-01-01 00:02:57.290, 0.003, -0.006, 0.998, -0.183, -0.427, 0, -0.192, 0.022, -101.047, -49.000, -9.604, -22.638,, 0.63571, -0.00107, 0.00125, -0.77188,
 14:53:42.445,d3:c7:8d:a5:a9:b5, 2015-01-01 00:02:57.290, 0.003, -0.002, 0.999, 0, 0.244, 0, -0.192, 0.022, -101.047, -49.000, -9.604, -22.638,, 0.63571, -0.00107, 0.00125, -0.77188,
 14:53:42.499,d3:c7:8d:a5:a9:b5, 2015-01-01 00:02:57.290, -0.002, -0.002, 0.999, 0, 0.244, 0, -0.192, 0.022, -101.047, -49.000, -9.604, -22.638,, 0.63571, -0.00107, 0.00125, -0.77188,
 14:53:42.499,d3:c7:8d:a5:a9:b5, 2015-01-01 00:02:57.290, -0.002, 0, 1, 0.122, 0.549, 0, -0.192, 0.027, -101.047, -49.000, -9.604, -22.638,, 0.63571, -0.00107, 0.00125, -0.77188,
 14:53:42.499,d3:c7:8d:a5:a9:b5, 2015-01-01 00:02:57.290, -0.007, 0, 1, 0.122, 0.549, 0, -0.192, 0.033, -101.047, -49.000, -9.604, -22.638,, 0.63571, -0.00107, 0.00125, -0.77188,
 14:53:42.499,d3:c7:8d:a5:a9:b5, 2015-01-01 00:02:57.290, -0.007, -0.001, 1, -0.122, 0, 0, -0.192, 0.038, -101.047, -49.000, -9.604, -22.638,, 0.63571, -0.00107, 0.00125, -0.77188,
 14:53:42.529,d3:c7:8d:a5:a9:b5, 2015-01-01 00:02:57.290, -0.003, -0.001, 1, -0.122, 0, 0, -0.192, 0.038, -101.047, -49.000, -9.604, -22.638,, 0.63571, -0.00107, 0.00125, -0.77188,
 14:53:42.529,d3:c7:8d:a5:a9:b5, 2015-01-01 00:02:57.290, -0.003, -0.005, 0.998, -0.244, -0.671, 0, -0.192, 0.033, -101.047, -49.000, -9.604, -22.638,, 0.63571, -0.00107, 0.00125, -0.77188,
 14:53:42.529,d3:c7:8d:a5:a9:b5, 2015-01-01 00:02:57.290, 0.004, -0.005, 0.998, -0.244, -0.671, 0, -0.198, 0.027, -101.047, -49.000, -9.604, -22.638,, 0.63571, -0.00107, 0.00125, -0.77188,
 14:53:42.529,d3:c7:8d:a5:a9:b5, 2015-01-01 00:02:57.290, 0.004, -0.005, 0.999, -0.122, -0.366, 0, -0.198, 0.022, -101.047, -49.000, -9.604, -22.638,, 0.63571, -0.00107, 0.00125, -0.77188,
 14:53:42.559,d3:c7:8d:a5:a9:b5, 2015-01-01 00:02:57.290, 0.002, -0.005, 0.999, -0.122, -0.366, 0, -0.198, 0.022, -101.047, -49.000, -9.604, -22.638,, 0.63571, -0.00107, 0.00125, -0.77188,
 14:53:42.559,d3:c7:8d:a5:a9:b5, 2015-01-01 00:02:57.290, 0.002, -0.002, 1, 0, 0.671, 0, -0.198, 0.022, -101.047, -49.000, -9.604, -22.638,, 0.63571, -0.00107, 0.00125, -0.77188,
 14:53:42.559,d3:c7:8d:a5:a9:b5, 2015-01-01 00:02:57.290, -0.005, -0.002, 1, 0, 0.671, 0, -0.198, 0.027, -101.047, -49.000, -9.604, -22.638,, 0.63571, -0.00107, 0.00125, -0.77188,
 14:53:42.559,d3:c7:8d:a5:a9:b5, 2015-01-01 00:02:57.290, -0.005, 0, 1.001, 0, 0.671, 0, -0.198, 0.033, -101.047, -49.000, -9.604, -22.638,, 0.63571, -0.00107, 0.00125, -0.77188,
 14:53:42.622,d3:c7:8d:a5:a9:b5, 2015-01-01 00:02:57.290, -0.004, 0, 1.001, 0, 0.671, 0, -0.198, 0.044, -101.047, -49.000, -9.604, -22.638,, 0.63571, -0.00107, 0.00125, -0.77188,
 14:53:42.622,d3:c7:8d:a5:a9:b5, 2015-01-01 00:02:57.290, -0.004, -0.003, 1, 0, 0, 0, -0.198, 0.044, -101.047, -49.000, -9.604, -22.638,, 0.63571, -0.00107, 0.00125, -0.77188,
 14:53:42.622,d3:c7:8d:a5:a9:b5, 2015-01-01 00:02:57.290, 0, -0.003, 1, 0, 0, 0, -0.198, 0.044, -101.047, -49.000, -9.604, -22.638,, 0.63571, -0.00107, 0.00125, -0.77188,
 14:53:42.623,d3:c7:8d:a5:a9:b5, 2015-01-01 00:02:57.290, 0, -0.005, 0.998, -0.061, 0, 0, -0.198, 0.044, -101.047, -49.000, -9.604, -22.638,, 0.63571, -0.00107, 0.00125, -0.77188,
 14:53:42.650,d3:c7:8d:a5:a9:b5, 2015-01-01 00:02:57.290, 0, -0.005, 0.998, -0.061, 0, 0, -0.198, 0.044, -101.047, -48.902, -9.506, -22.736,, 0.63571, -0.00107, 0.00125, -0.77188,
 14:53:42.650,d3:c7:8d:a5:a9:b5, 2015-01-01 00:02:57.290, 0, -0.004, 0.999, 0.061, 0.183, 0, -0.198, 0.049, -101.047, -48.902, -9.506, -22.736,, 0.63571, -0.00107, 0.00125, -0.77188,
 14:53:42.650,d3:c7:8d:a5:a9:b5, 2015-01-01 00:02:57.290, 0, -0.004, 0.999, 0.061, 0.183, 0, -0.198, 0.049, -101.047, -48.902, -9.506, -22.736,, 0.63571, -0.00107, 0.00125, -0.77188,
 14:53:42.650,d3:c7:8d:a5:a9:b5, 2015-01-01 00:02:57.290, 0, 0, 1, 0, 0.549, 0, -0.198, 0.055, -101.047, -48.902, -9.506, -22.736,, 0.63571, -0.00107, 0.00125, -0.77188,
 14:53:42.680,d3:c7:8d:a5:a9:b5, 2015-01-01 00:02:57.290, -0.004, 0, 1, 0, 0.549, 0, -0.198, 0.06, -101.047, -48.902, -9.506, -22.736,, 0.63571, -0.00107, 0.00125, -0.77188,
 14:53:42.680,d3:c7:8d:a5:a9:b5, 2015-01-01 00:02:57.290, -0.004, 0, 1.001, -0.305, 0.488, 0, -0.198, 0.06, -101.047, -48.902, -9.506, -22.736,, 0.63571, -0.00107, 0.00125, -0.77188,
 14:53:42.680,d3:c7:8d:a5:a9:b5, 2015-01-01 00:02:57.290, -0.004, 0, 1.001, -0.305, 0.488, 0, -0.203, 0.066, -101.047, -48.902, -9.506, -22.736,, 0.63571, -0.00107, 0.00125, -0.77188,
 14:53:42.680,d3:c7:8d:a5:a9:b5, 2015-01-01 00:02:57.290, -0.004, -0.004, 0.999, -0.427, 0, 0, -0.203, 0.071, -101.047, -48.902, -9.506, -22.736,, 0.63571, -0.00107, 0.00125, -0.77188,
 14:53:42.741,d3:c7:8d:a5:a9:b5, 2015-01-01 00:02:57.290, -0.001, -0.004, 0.999, -0.427, 0, 0, -0.209, 0.071, -101.047, -48.902, -9.506, -22.736,, 0.63571, -0.00064, 0.00177, -0.77185,
 14:53:42.741,d3:c7:8d:a5:a9:b5, 2015-01-01 00:02:57.290, -0.001, -0.007, 0.998, -0.061, 0, 0, -0.209, 0.071, -101.047, -48.902, -9.506, -22.736,, 0.63571, -0.00064, 0.00177, -0.77185,
 14:53:42.741,d3:c7:8d:a5:a9:b5, 2015-01-01 00:02:57.290, 0, -0.007, 0.998, -0.061, 0, 0, -0.214, 0.071, -101.047, -48.902, -9.506, -22.736,, 0.63571, -0.00064, 0.00177, -0.77185,
 14:53:42.741,d3:c7:8d:a5:a9:b5, 2015-01-01 00:02:57.290, 0, -0.003, 0.998, 0.122, 0.244, 0, -0.214, 0.071, -101.047, -48.902, -9.506, -22.736,, 0.63571, -0.00064, 0.00177, -0.77185,
 14:53:42.769,d3:c7:8d:a5:a9:b5, 2015-01-01 00:02:57.290, 0, -0.003, 0.998, 0.122, 0.244, 0, -0.209, 0.077, -101.047, -48.902, -9.506, -22.736,, 0.63571, -0.00064, 0.00177, -0.77185,
 14:53:42.769,d3:c7:8d:a5:a9:b5, 2015-01-01 00:02:57.290, 0, -0.001, 1.001, 0.122, 0.793, 0, -0.209, 0.082, -101.047, -48.902, -9.506, -22.736,, 0.63571, -0.00064, 0.00177, -0.77185,
 14:53:42.769,d3:c7:8d:a5:a9:b5, 2015-01-01 00:02:57.290, -0.01, -0.001, 1.001, 0.122, 0.793, 0, -0.209, 0.088, -101.047, -48.902, -9.506, -22.736,, 0.63571, -0.00064, 0.00177, -0.77185,
 14:53:42.769,d3:c7:8d:a5:a9:b5, 2015-01-01 00:02:57.290, -0.01, -0.003, 1, -0.061, 0.305, 0, -0.209, 0.093, -101.047, -48.902, -9.506, -22.736,, 0.63571, -0.00064, 0.00177, -0.77185,
 14:53:42.800,d3:c7:8d:a5:a9:b5, 2015-01-01 00:02:57.290, -0.006, -0.003, 1, -0.061, 0.305, 0, -0.209, 0.099, -101.047, -48.902, -9.506, -22.736,, 0.63571, -0.00064, 0.00177, -0.77185,
 14:53:42.800,d3:c7:8d:a5:a9:b5, 2015-01-01 00:02:57.290, -0.006, -0.004, 0.998, -0.061, -0.793, 0, -0.209, 0.093, -101.047, -48.902, -9.506, -22.736,, 0.63571, -0.00064, 0.00177, -0.77185,
 14:53:42.800,d3:c7:8d:a5:a9:b5, 2015-01-01 00:02:57.290, 0.001, -0.004, 0.998, -0.061, -0.793, 0, -0.209, 0.088, -101.047, -48.902, -9.506, -22.736,, 0.63571, -0.00064, 0.00177, -0.77185,
 14:53:42.800,d3:c7:8d:a5:a9:b5, 2015-01-01 00:02:57.290, 0.001, -0.004, 0.999, 0, -0.671, 0, -0.209, 0.082, -101.047, -48.902, -9.506, -22.736,, 0.63571, -0.00064, 0.00177, -0.77185,
 14:53:42.860,d3:c7:8d:a5:a9:b5, 2015-01-01 00:02:57.290, 0, -0.004, 0.999, 0, -0.671, 0, -0.209, 0.077, -101.047, -48.902, -9.506, -22.736, 22.3, 0.63571, -0.00064, 0.00177, -0.77185,
 14:53:42.860,d3:c7:8d:a5:a9:b5, 2015-01-01 00:02:57.290, 0, -0.002, 0.999, 0.061, -0.122, 0, -0.209, 0.071, -101.041, -48.902, -9.506, -22.736, 22.3, 0.63571, -0.00064, 0.00177, -0.77185,
 14:53:42.860,d3:c7:8d:a5:a9:b5, 2015-01-01 00:02:57.290, 0, -0.002, 0.999, 0.061, -0.122, 0, -0.209, 0.071, -101.041, -48.902, -9.506, -22.736, 22.3, 0.63571, -0.00064, 0.00177, -0.77185,
 14:53:42.860,d3:c7:8d:a5:a9:b5, 2015-01-01 00:02:57.290, 0, -0.001, 1.001, 0, 0.244, 0, -0.209, 0.071, -101.041, -48.902, -9.506, -22.736, 22.3, 0.63571, -0.00064, 0.00177, -0.77185,
 14:53:42.889,d3:c7:8d:a5:a9:b5, 2015-01-01 00:02:57.765, -0.002, -0.001, 1.001, 0, 0.244, 0, -0.209, 0.071, -101.041, -48.902, -9.506, -22.736, 22.3, 0.63571, -0.00064, 0.00177, -0.77185,
 14:53:42.889,d3:c7:8d:a5:a9:b5, 2015-01-01 00:02:57.765, -0.002, -0.003, 1, -0.061, 0.488, 0, -0.209, 0.077, -101.041, -48.902, -9.506, -22.736, 22.3, 0.63571, -0.00064, 0.00177, -0.77185,
 14:53:42.889,d3:c7:8d:a5:a9:b5, 2015-01-01 00:02:57.765, -0.005, -0.003, 1, -0.061, 0.488, 0, -0.209, 0.082, -101.041, -48.902, -9.506, -22.736, 22.3, 0.63571, -0.00064, 0.00177, -0.77185,
 14:53:42.889,d3:c7:8d:a5:a9:b5, 2015-01-01 00:02:57.765, -0.005, -0.003, 0.999, 0, 0.305, 0, -0.209, 0.088, -101.041, -48.902, -9.506, -22.736, 22.3, 0.63571, -0.00064, 0.00177, -0.77185,
 14:53:42.921,d3:c7:8d:a5:a9:b5, 2015-01-01 00:02:57.765, -0.005, -0.003, 0.999, 0, 0.305, 0, -0.209, 0.088, -101.041, -48.902, -9.506, -22.736, 22.3, 0.63571, -0.00064, 0.00177, -0.77185,
 14:53:42.921,d3:c7:8d:a5:a9:b5, 2015-01-01 00:02:57.765, -0.005, -0.004, 0.999, 0, -0.122, 0, -0.209, 0.088, -101.041, -48.902, -9.506, -22.736, 22.3, 0.63571, -0.00064, 0.00177, -0.77185,
 14:53:42.921,d3:c7:8d:a5:a9:b5, 2015-01-01 00:02:57.765, -0.001, -0.004, 0.999, 0, -0.122, 0, -0.209, 0.088, -101.041, -48.902, -9.506, -22.736, 22.3, 0.63571, -0.00064, 0.00177, -0.77185,
 14:53:42.921,d3:c7:8d:a5:a9:b5, 2015-01-01 00:02:57.765, -0.001, -0.003, 1, 0.061, -0.244, 0, -0.209, 0.088, -101.041, -48.902, -9.506, -22.736, 22.3, 0.63571, -0.00064, 0.00177, -0.77185,
 14:53:42.980,d3:c7:8d:a5:a9:b5, 2015-01-01 00:02:57.765, 0.002, -0.003, 1, 0.061, -0.244, 0, -0.209, 0.082, -101.041, -48.902, -9.506, -22.736, 22.3, 0.63571, -0.00064, 0.00177, -0.77185,
 14:53:42.980,d3:c7:8d:a5:a9:b5, 2015-01-01 00:02:57.765, 0.002, -0.002, 1, 0.061, 0, 0, -0.203, 0.082, -101.041, -48.902, -9.506, -22.736, 22.3, 0.63571, -0.00064, 0.00177, -0.77185,
 14:53:42.980,d3:c7:8d:a5:a9:b5, 2015-01-01 00:02:57.765, -0.002, -0.002, 1, 0.061, 0, 0, -0.203, 0.082, -101.041, -48.902, -9.506, -22.736, 22.3, 0.63571, -0.00064, 0.00177, -0.77185,
 14:53:42.980,d3:c7:8d:a5:a9:b5, 2015-01-01 00:02:57.765, -0.002, -0.003, 0.999, 0.061, 0.305, 0, -0.203, 0.088, -101.047, -48.902, -9.506, -22.736, 22.3, 0.63571, -0.00064, 0.00177, -0.77185,
 14:53:43.009,d3:c7:8d:a5:a9:b5, 2015-01-01 00:02:57.765, -0.002, -0.003, 0.999, 0.061, 0.305, 0, -0.203, 0.088, -101.047, -48.902, -9.506, -22.736, 22.3, 0.63571, -0.00064, 0.00177, -0.77185,
 14:53:43.009,d3:c7:8d:a5:a9:b5, 2015-01-01 00:02:57.765, -0.002, -0.003, 1, 0.061, 0.366, 0, -0.203, 0.093, -101.047, -48.902, -9.506, -22.736, 22.3, 0.63571, -0.00064, 0.00177, -0.77185,
 14:53:43.009,d3:c7:8d:a5:a9:b5, 2015-01-01 00:02:57.765, -0.006, -0.003, 1, 0.061, 0.366, 0, -0.203, 0.099, -101.047, -48.902, -9.506, -22.736, 22.3, 0.63571, -0.00064, 0.00177, -0.77185,
 14:53:43.009,d3:c7:8d:a5:a9:b5, 2015-01-01 00:02:57.765, -0.006, -0.004, 0.999, 0, 0.244, 0, -0.203, 0.099, -101.047, -48.902, -9.506, -22.736, 22.3, 0.63571, -0.00064, 0.00177, -0.77185,
 14:53:43.038,d3:c7:8d:a5:a9:b5, 2015-01-01 00:02:57.765, -0.006, -0.004, 0.999, 0, 0.244, 0, -0.203, 0.104, -101.047, -48.902, -9.506, -22.736, 22.3, 0.63571, -0.00064, 0.00177, -0.77185,
 14:53:43.038,d3:c7:8d:a5:a9:b5, 2015-01-01 00:02:57.765, -0.006, -0.003, 1, 0, -0.305, 0, -0.203, 0.099, -101.047, -48.902, -9.506, -22.736, 22.3, 0.63571, -0.00064, 0.00177, -0.77185,
 14:53:43.038,d3:c7:8d:a5:a9:b5, 2015-01-01 00:02:57.765, -0.002, -0.003, 1, 0, -0.305, 0, -0.203, 0.099, -101.047, -48.902, -9.506, -22.736, 22.3, 0.63571, -0.00064, 0.00177, -0.77185,
 14:53:43.038,d3:c7:8d:a5:a9:b5, 2015-01-01 00:02:57.765, -0.002, -0.001, 1, 0.061, -0.427, 0, -0.203, 0.093, -101.047, -48.902, -9.506, -22.736, 22.3, 0.63571, -0.00064, 0.00177, -0.77185,
 14:53:43.099,d3:c7:8d:a5:a9:b5, 2015-01-01 00:02:57.765, 0, -0.001, 1, 0.061, -0.427, 0, -0.203, 0.088, -101.047, -48.902, -9.506, -22.736, 22.3, 0.63571, -0.00064, 0.00177, -0.77185,
 14:53:43.099,d3:c7:8d:a5:a9:b5, 2015-01-01 00:02:57.765, 0, -0.003, 0.998, 0, -0.061, 0, -0.198, 0.088, -101.047, -48.902, -9.506, -22.736, 22.3, 0.63571, -0.00064, 0.00177, -0.77185,
 14:53:43.099,d3:c7:8d:a5:a9:b5, 2015-01-01 00:02:57.765, -0.001, -0.003, 0.998, 0, -0.061, 0, -0.198, 0.088, -101.047, -48.902, -9.506, -22.736, 22.3, 0.63571, -0.00064, 0.00177, -0.77185,
 14:53:43.099,d3:c7:8d:a5:a9:b5, 2015-01-01 00:02:57.765, -0.001, -0.003, 1, -0.122, 0.183, 0, -0.203, 0.093, -101.047, -48.902, -9.506, -22.736, 22.3, 0.63571, -0.00064, 0.00177, -0.77185,
 14:53:43.129,d3:c7:8d:a5:a9:b5, 2015-01-01 00:02:57.765, -0.003, -0.003, 1, -0.122, 0.183, 0, -0.203, 0.093, -101.047, -48.902, -9.408, -22.638, 22.3, 0.63571, -0.00064, 0.00177, -0.77185,
 14:53:43.129,d3:c7:8d:a5:a9:b5, 2015-01-01 00:02:57.765, -0.003, -0.003, 0.998, 0, 0, 0, -0.203, 0.093, -101.047, -48.902, -9.408, -22.638, 22.3, 0.63571, -0.00064, 0.00177, -0.77185,
 14:53:43.129,d3:c7:8d:a5:a9:b5, 2015-01-01 00:02:57.765, -0.002, -0.003, 0.998, 0, 0, 0, -0.203, 0.093, -101.047, -48.902, -9.408, -22.638, 22.3, 0.63571, -0.00064, 0.00177, -0.77185,
 14:53:43.129,d3:c7:8d:a5:a9:b5, 2015-01-01 00:02:57.765, -0.002, -0.003, 0.999, 0.061, -0.305, 0, -0.203, 0.093, -101.047, -48.902, -9.408, -22.638, 22.3, 0.63571, -0.00064, 0.00177, -0.77185,
 14:53:43.160,d3:c7:8d:a5:a9:b5, 2015-01-01 00:02:57.765, 0.001, -0.003, 0.999, 0.061, -0.305, 0, -0.203, 0.088, -101.047, -48.902, -9.408, -22.638, 22.3, 0.63571, -0.00064, 0.00177, -0.77185,
 14:53:43.160,d3:c7:8d:a5:a9:b5, 2015-01-01 00:02:57.765, 0.001, -0.002, 0.999, 0, 0.061, 0, -0.203, 0.088, -101.047, -48.902, -9.408, -22.638, 22.3, 0.63571, -0.00064, 0.00177, -0.77185,
 14:53:43.160,d3:c7:8d:a5:a9:b5, 2015-01-01 00:02:57.765, 0.002, -0.002, 0.999, 0, 0.061, 0, -0.203, 0.088, -101.047, -48.902, -9.408, -22.638, 22.3, 0.63571, -0.00064, 0.00177, -0.77185,
 14:53:43.160,d3:c7:8d:a5:a9:b5, 2015-01-01 00:02:57.765, 0.002, -0.001, 1, -0.061, 0.916, 0, -0.203, 0.099, -101.047, -48.902, -9.408, -22.638, 22.3, 0.63571, -0.00064, 0.00177, -0.77185,
 14:53:43.219,d3:c7:8d:a5:a9:b5, 2015-01-01 00:02:57.765, -0.006, -0.001, 1, -0.061, 0.916, 0, -0.203, 0.11, -101.047, -48.902, -9.408, -22.638, 22.3, 0.63571, -0.00046, 0.00189, -0.77185,
 14:53:43.219,d3:c7:8d:a5:a9:b5, 2015-01-01 00:02:57.765, -0.006, -0.004, 0.999, -0.061, 0.916, 0, -0.203, 0.115, -101.047, -48.902, -9.408, -22.638, 22.3, 0.63571, -0.00046, 0.00189, -0.77185,
 14:53:43.219,d3:c7:8d:a5:a9:b5, 2015-01-01 00:02:57.765, -0.01, -0.004, 0.999, -0.061, 0.916, 0, -0.203, 0.126, -101.047, -48.902, -9.408, -22.638, 22.3, 0.63571, -0.00046, 0.00189, -0.77185,
 14:53:43.219,d3:c7:8d:a5:a9:b5, 2015-01-01 00:02:57.765, -0.01, -0.003, 1, 0.061, 0.122, 0, -0.203, 0.126, -101.047, -48.902, -9.408, -22.638, 22.3, 0.63571, -0.00046, 0.00189, -0.77185,
 14:53:43.250,d3:c7:8d:a5:a9:b5, 2015-01-01 00:02:58.120, -0.006, -0.003, 1, 0.061, 0.122, 0, -0.203, 0.132, -101.047, -48.902, -9.408, -22.638, 22.3, 0.63571, -0.00046, 0.00189, -0.77185,
 14:53:43.250,d3:c7:8d:a5:a9:b5, 2015-01-01 00:02:58.120, -0.006, -0.003, 1, 0.122, -0.61, 0, -0.198, 0.121, -101.047, -48.902, -9.408, -22.638, 22.3, 0.63571, -0.00046, 0.00189, -0.77185,
 14:53:43.250,d3:c7:8d:a5:a9:b5, 2015-01-01 00:02:58.120, -0.003, -0.003, 1, 0.122, -0.61, 0, -0.198, 0.115, -101.047, -48.902, -9.408, -22.638, 22.3, 0.63571, -0.00046, 0.00189, -0.77185,
 14:53:43.250,d3:c7:8d:a5:a9:b5, 2015-01-01 00:02:58.120, -0.003, -0.003, 0.999, 0.244, -0.916, 0, -0.198, 0.11, -101.047, -48.902, -9.408, -22.638, 22.3, 0.63571, -0.00046, 0.00189, -0.77185,
 14:53:43.278,d3:c7:8d:a5:a9:b5, 2015-01-01 00:02:58.120, 0.002, -0.003, 0.999, 0.244, -0.916, 0, -0.192, 0.099, -101.047, -48.902, -9.408, -22.638, 22.3, 0.63571, -0.00046, 0.00189, -0.77185,
 14:53:43.278,d3:c7:8d:a5:a9:b5, 2015-01-01 00:02:58.120, 0.002, -0.002, 1, 0.061, -0.305, 0, -0.192, 0.099, -101.047, -48.902, -9.408, -22.638, 22.3, 0.63571, -0.00046, 0.00189, -0.77185,
 14:53:43.278,d3:c7:8d:a5:a9:b5, 2015-01-01 00:02:58.120, -0.001, -0.002, 1, 0.061, -0.305, 0, -0.192, 0.093, -101.047, -48.902, -9.408, -22.638, 22.3, 0.63571, -0.00046, 0.00189, -0.77185,
 14:53:43.278,d3:c7:8d:a5:a9:b5, 2015-01-01 00:02:58.120, -0.001, -0.003, 0.999, -0.122, 0.244, 0, -0.192, 0.099, -101.047, -48.902, -9.408, -22.638, 22.3, 0.63571, -0.00046, 0.00189, -0.77185,
 14:53:43.339,d3:c7:8d:a5:a9:b5, 2015-01-01 00:02:58.120, -0.008, -0.003, 0.999, -0.122, 0.244, 0, -0.192, 0.099, -101.047, -48.902, -9.408, -22.638, 22.3, 0.63571, -0.00046, 0.00189, -0.77185,
 14:53:43.339,d3:c7:8d:a5:a9:b5, 2015-01-01 00:02:58.120, -0.001, -0.004, 1, 0, -0.427, 0, -0.192, 0.099, -101.047, -48.902, -9.408, -22.638, 22.3, 0.63571, -0.00046, 0.00189, -0.77185,
 14:53:43.339,d3:c7:8d:a5:a9:b5, 2015-01-01 00:02:58.120, -0.001, -0.002, 0.999, 0.061, -0.854, 0, -0.192, 0.093, -101.047, -48.902, -9.408, -22.638, 22.3, 0.63571, -0.00046, 0.00189, -0.77185,
 14:53:43.339,d3:c7:8d:a5:a9:b5, 2015-01-01 00:02:58.120, 0.002, -0.002, 0.999, 0.061, -0.854, 0, -0.192, 0.082, -101.047, -48.902, -9.408, -22.638, 22.3, 0.63571, -0.00046, 0.00189, -0.77185,
 14:53:43.369,d3:c7:8d:a5:a9:b5, 2015-01-01 00:02:58.120, 0.002, -0.003, 1, 0.061, -0.488, 0, -0.192, 0.077, -101.047, -48.902, -9.408, -22.638, 22.3, 0.63571, -0.00046, 0.00189, -0.77185,
 14:53:43.369,d3:c7:8d:a5:a9:b5, 2015-01-01 00:02:58.120, 0, -0.003, 1, 0.061, -0.488, 0, -0.192, 0.071, -101.047, -48.902, -9.408, -22.638, 22.3, 0.63571, -0.00046, 0.00189, -0.77185,
 14:53:43.369,d3:c7:8d:a5:a9:b5, 2015-01-01 00:02:58.120, 0, -0.002, 0.999, 0.061, 0.366, 0, -0.192, 0.071, -101.047, -48.902, -9.408, -22.638, 22.3, 0.63571, -0.00046, 0.00189, -0.77185,
 14:53:43.369,d3:c7:8d:a5:a9:b5, 2015-01-01 00:02:58.120, -0.001, -0.002, 0.999, 0.061, 0.366, 0, -0.192, 0.077, -101.047, -48.902, -9.408, -22.638, 22.3, 0.63571, -0.00046, 0.00189, -0.77185,
 14:53:43.399,d3:c7:8d:a5:a9:b5, 2015-01-01 00:02:58.120, -0.001, -0.003, 1, 0.061, 0.549, 0, -0.187, 0.082, -101.047, -48.902, -9.408, -22.638, 22.3, 0.63571, -0.00046, 0.00189, -0.77185,
 14:53:43.399,d3:c7:8d:a5:a9:b5, 2015-01-01 00:02:58.120, -0.002, -0.003, 1, 0.061, 0.549, 0, -0.187, 0.088, -101.047, -48.902, -9.408, -22.638, 22.3, 0.63571, -0.00046, 0.00189, -0.77185,
 14:53:43.399,d3:c7:8d:a5:a9:b5, 2015-01-01 00:02:58.120, -0.002, -0.002, 1, 0.183, 0.366, 0, -0.187, 0.093, -101.047, -48.902, -9.408, -22.638, 22.3, 0.63571, -0.00046, 0.00189, -0.77185,
 14:53:43.399,d3:c7:8d:a5:a9:b5, 2015-01-01 00:02:58.120, 0, -0.002, 1, 0.183, 0.366, 0, -0.187, 0.093, -101.047, -48.902, -9.408, -22.638, 22.3, 0.63571, -0.00046, 0.00189, -0.77185,
 14:53:43.459,d3:c7:8d:a5:a9:b5, 2015-01-01 00:02:58.120, 0, -0.003, 0.998, 0.366, 0.671, 0, -0.181, 0.099, -101.047, -48.902, -9.408, -22.638, 22.3, 0.63571, -0.00046, 0.00189, -0.77185,
 14:53:43.459,d3:c7:8d:a5:a9:b5, 2015-01-01 00:02:58.120, -0.004, -0.003, 0.998, 0.366, 0.671, 0, -0.181, 0.104, -101.047, -48.902, -9.408, -22.638, 22.3, 0.63571, -0.00046, 0.00189, -0.77185,
 14:53:43.459,d3:c7:8d:a5:a9:b5, 2015-01-01 00:02:58.120, -0.004, -0.001, 1, 0.244, 0.916, 0, -0.176, 0.115, -101.047, -48.902, -9.408, -22.638, 22.3, 0.63571, -0.00046, 0.00189, -0.77185,
 14:53:43.459,d3:c7:8d:a5:a9:b5, 2015-01-01 00:02:58.120, -0.01, -0.001, 1, 0.244, 0.916, 0, -0.176, 0.121, -101.047, -48.902, -9.408, -22.638, 22.3, 0.63571, -0.00046, 0.00189, -0.77185,
 14:53:43.489,d3:c7:8d:a5:a9:b5, 2015-01-01 00:02:58.120, -0.01, -0.003, 0.999, -0.061, 0.427, 0, -0.17, 0.132, -101.047, -48.902, -9.506, -22.736, 22.3, 0.63571, -0.00046, 0.00189, -0.77185,
 14:53:43.489,d3:c7:8d:a5:a9:b5, 2015-01-01 00:02:58.120, -0.005, -0.003, 0.999, -0.061, 0.427, 0, -0.17, 0.132, -101.047, -48.902, -9.506, -22.736, 22.3, 0.63571, -0.00046, 0.00189, -0.77185,
 14:53:43.489,d3:c7:8d:a5:a9:b5, 2015-01-01 00:02:58.120, -0.005, -0.002, 0.999, -0.366, -0.671, 0, -0.176, 0.132, -101.047, -48.902, -9.506, -22.736, 22.3, 0.63571, -0.00046, 0.00189, -0.77185,
 14:53:43.489,d3:c7:8d:a5:a9:b5, 2015-01-01 00:02:58.120, 0.002, -0.002, 0.999, -0.366, -0.671, 0, -0.176, 0.126, -101.047, -48.902, -9.506, -22.736, 22.3, 0.63571, -0.00046, 0.00189, -0.77185,
 14:53:43.520,d3:c7:8d:a5:a9:b5, 2015-01-01 00:02:58.120, 0.002, -0.001, 1, -0.305, -0.244, 0, -0.181, 0.121, -101.047, -48.902, -9.506, -22.736, 22.3, 0.63571, -0.00046, 0.00189, -0.77185,
 14:53:43.520,d3:c7:8d:a5:a9:b5, 2015-01-01 00:02:58.120, 0.006, -0.001, 1, -0.305, -0.244, 0, -0.187, 0.121, -101.047, -48.902, -9.506, -22.736, 22.3, 0.63571, -0.00046, 0.00189, -0.77185,
 14:53:43.520,d3:c7:8d:a5:a9:b5, 2015-01-01 00:02:58.120, 0.006, -0.004, 0.999, -0.122, 0.732, 0, -0.187, 0.121, -101.047, -48.902, -9.506, -22.736, 22.3, 0.63571, -0.00046, 0.00189, -0.77185,
 14:53:43.520,d3:c7:8d:a5:a9:b5, 2015-01-01 00:02:58.120, -0.003, -0.004, 0.999, -0.122, 0.732, 0, -0.187, 0.132, -101.047, -48.902, -9.506, -22.736, 22.3, 0.63571, -0.00046, 0.00189, -0.77185,
 14:53:43.580,d3:c7:8d:a5:a9:b5, 2015-01-01 00:02:58.120, -0.003, -0.003, 0.999, 0.061, 1.831, 0, -0.187, 0.143, -101.047, -48.902, -9.506, -22.736, 22.3, 0.63571, -0.00018, 0.00195, -0.77185,
 14:53:43.580,d3:c7:8d:a5:a9:b5, 2015-01-01 00:02:58.120, -0.01, -0.003, 0.999, 0.061, 1.831, 0, -0.187, 0.159, -101.047, -48.902, -9.506, -22.736, 22.3, 0.63571, -0.00018, 0.00195, -0.77185,
 14:53:43.580,d3:c7:8d:a5:a9:b5, 2015-01-01 00:02:58.120, -0.01, -0.004, 1, 0.061, 1.343, 0, -0.187, 0.176, -101.047, -48.902, -9.506, -22.736, 22.3, 0.63571, -0.00018, 0.00195, -0.77185,
 14:53:43.580,d3:c7:8d:a5:a9:b5, 2015-01-01 00:02:58.120, -0.012, -0.004, 1, 0.061, 1.343, 0, -0.187, 0.187, -101.047, -48.902, -9.506, -22.736, 22.3, 0.63571, -0.00018, 0.00195, -0.77185,
 14:53:43.609,d3:c7:8d:a5:a9:b5, 2015-01-01 00:02:58.480, -0.012, -0.002, 1, 0, 0.183, 0, -0.187, 0.198, -101.047, -48.902, -9.506, -22.736, 22.3, 0.63571, -0.00018, 0.00195, -0.77185,
 14:53:43.609,d3:c7:8d:a5:a9:b5, 2015-01-01 00:02:58.480, -0.006, -0.002, 1, 0, 0.183, 0, -0.187, 0.198, -101.047, -48.902, -9.506, -22.736, 22.3, 0.63571, -0.00018, 0.00195, -0.77185,
 14:53:43.609,d3:c7:8d:a5:a9:b5, 2015-01-01 00:02:58.480, -0.006, -0.003, 0.999, 0, -0.671, 0, -0.187, 0.198, -101.047, -48.902, -9.506, -22.736, 22.3, 0.63571, -0.00018, 0.00195, -0.77185,
 14:53:43.609,d3:c7:8d:a5:a9:b5, 2015-01-01 00:02:58.480, -0.001, -0.003, 0.999, 0, -0.671, 0, -0.187, 0.192, -101.047, -48.902, -9.506, -22.736, 22.3, 0.63571, -0.00018, 0.00195, -0.77185,
 14:53:43.669,d3:c7:8d:a5:a9:b5, 2015-01-01 00:02:58.480, -0.001, -0.002, 1, -0.061, -0.671, 0, -0.187, 0.181, -101.047, -48.902, -9.506, -22.736, 22.3, 0.63571, -0.00018, 0.00195, -0.77185,
 14:53:43.669,d3:c7:8d:a5:a9:b5, 2015-01-01 00:02:58.480, 0.003, -0.002, 1, -0.061, -0.671, 0, -0.187, 0.176, -101.047, -48.902, -9.506, -22.736, 22.3, 0.63571, -0.00018, 0.00195, -0.77185,
 14:53:43.669,d3:c7:8d:a5:a9:b5, 2015-01-01 00:02:58.480, 0.003, -0.001, 0.999, -0.122, 0, 0, -0.187, 0.176, -101.047, -48.902, -9.506, -22.736, 22.3, 0.63571, -0.00018, 0.00195, -0.77185,
 14:53:43.669,d3:c7:8d:a5:a9:b5, 2015-01-01 00:02:58.480, -0.004, -0.001, 0.999, -0.122, 0, 0, -0.187, 0.176, -101.047, -48.902, -9.506, -22.736, 22.3, 0.63571, -0.00018, 0.00195, -0.77185,
 14:53:43.701,d3:c7:8d:a5:a9:b5, 2015-01-01 00:02:58.480, -0.004, -0.002, 0.999, -0.305, 0.427, 0, -0.187, 0.176, -101.047, -48.902, -9.506, -22.736, 22.3, 0.63571, -0.00018, 0.00195, -0.77185,
 14:53:43.701,d3:c7:8d:a5:a9:b5, 2015-01-01 00:02:58.480, -0.007, -0.002, 0.999, -0.305, 0.427, 0, -0.192, 0.181, -101.047, -48.902, -9.506, -22.736, 22.3, 0.63571, -0.00018, 0.00195, -0.77185,
 14:53:43.701,d3:c7:8d:a5:a9:b5, 2015-01-01 00:02:58.480, -0.007, -0.002, 1, -0.183, 0.183, 0, -0.192, 0.187, -101.047, -48.902, -9.506, -22.736, 22.3, 0.63571, -0.00018, 0.00195, -0.77185,
 14:53:43.701,d3:c7:8d:a5:a9:b5, 2015-01-01 00:02:58.480, -0.008, -0.002, 1, -0.183, 0.183, 0, -0.198, 0.187, -101.047, -48.902, -9.506, -22.736, 22.3, 0.63571, -0.00018, 0.00195, -0.77185,
 14:53:43.730,d3:c7:8d:a5:a9:b5, 2015-01-01 00:02:58.480, -0.008, -0.004, 1, -0.122, -0.366, 0, -0.198, 0.187, -101.047, -48.902, -9.506, -22.736, 22.3, 0.63571, -0.00018, 0.00195, -0.77185,
 14:53:43.730,d3:c7:8d:a5:a9:b5, 2015-01-01 00:02:58.480, -0.005, -0.004, 1, -0.122, -0.366, 0, -0.198, 0.181, -101.047, -48.902, -9.506, -22.736, 22.3, 0.63571, -0.00018, 0.00195, -0.77185,
 14:53:43.730,d3:c7:8d:a5:a9:b5, 2015-01-01 00:02:58.480, -0.005, -0.004, 0.999, 0, -0.793, 0, -0.198, 0.176, -101.047, -48.902, -9.506, -22.736, 22.3, 0.63571, -0.00018, 0.00195, -0.77185,
 14:53:43.730,d3:c7:8d:a5:a9:b5, 2015-01-01 00:02:58.480, 0, -0.004, 0.999, 0, -0.793, 0, -0.198, 0.17, -101.047, -48.902, -9.506, -22.736, 22.3, 0.63571, -0.00018, 0.00195, -0.77185,
 14:53:43.760,d3:c7:8d:a5:a9:b5, 2015-01-01 00:02:58.480, 0, -0.002, 0.999, -0.061, -0.427, 0, -0.198, 0.165, -101.047, -48.902, -9.506, -22.736, 22.3, 0.63571, -0.00018, 0.00195, -0.77185,
 14:53:43.760,d3:c7:8d:a5:a9:b5, 2015-01-01 00:02:58.480, -0.001, -0.002, 0.999, -0.061, -0.427, 0, -0.198, 0.159, -101.047, -48.902, -9.506, -22.736, 22.3, 0.63571, -0.00018, 0.00195, -0.77185,
 14:53:43.760,d3:c7:8d:a5:a9:b5, 2015-01-01 00:02:58.480, -0.001, -0.002, 1, 0, 0, 0, -0.198, 0.159, -101.047, -48.902, -9.506, -22.736, 22.3, 0.63571, -0.00018, 0.00195, -0.77185,
 14:53:43.760,d3:c7:8d:a5:a9:b5, 2015-01-01 00:02:58.480, -0.004, -0.002, 1, 0, 0, 0, -0.198, 0.159, -101.047, -48.902, -9.506, -22.736, 22.3, 0.63571, -0.00018, 0.00195, -0.77185,
 14:53:43.819,d3:c7:8d:a5:a9:b5, 2015-01-01 00:02:58.480, -0.004, -0.003, 0.999, -0.061, 0.122, 0, -0.198, 0.159, -101.052, -48.902, -9.506, -22.736, 22.3, 0.63571, -0.00018, 0.00195, -0.77185,
 14:53:43.819,d3:c7:8d:a5:a9:b5, 2015-01-01 00:02:58.480, -0.007, -0.003, 0.999, -0.061, 0.122, 0, -0.198, 0.165, -101.052, -48.902, -9.506, -22.736, 22.3, 0.63571, -0.00018, 0.00195, -0.77185,
 14:53:43.819,d3:c7:8d:a5:a9:b5, 2015-01-01 00:02:58.480, -0.007, -0.004, 1, 0, -0.366, 0, -0.198, 0.159, -101.052, -48.902, -9.506, -22.736, 22.3, 0.63571, -0.00018, 0.00195, -0.77185,
 14:53:43.819,d3:c7:8d:a5:a9:b5, 2015-01-01 00:02:58.480, -0.008, -0.004, 1, 0, -0.366, 0, -0.198, 0.154, -101.052, -48.902, -9.506, -22.736, 22.3, 0.63571, -0.00018, 0.00195, -0.77185,
 14:53:43.850,d3:c7:8d:a5:a9:b5, 2015-01-01 00:02:58.480, -0.008, -0.002, 0.999, -0.061, -1.099, 0, -0.198, 0.143, -101.052, -48.804, -9.506, -22.638, 22.3, 0.63571, -0.00018, 0.00195, -0.77185,
 14:53:43.850,d3:c7:8d:a5:a9:b5, 2015-01-01 00:02:58.480, 0.001, -0.002, 0.999, -0.061, -1.099, 0, -0.198, 0.137, -101.052, -48.804, -9.506, -22.638, 22.3, 0.63571, -0.00018, 0.00195, -0.77185,
 14:53:43.850,d3:c7:8d:a5:a9:b5, 2015-01-01 00:02:58.480, 0.001, -0.002, 1, -0.305, -1.16, 0, -0.203, 0.126, -101.052, -48.804, -9.506, -22.638, 22.3, 0.63571, -0.00018, 0.00195, -0.77185,
 14:53:43.850,d3:c7:8d:a5:a9:b5, 2015-01-01 00:02:58.480, 0.004, -0.002, 1, -0.305, -1.16, 0, -0.203, 0.115, -101.052, -48.804, -9.506, -22.638, 22.3, 0.63571, -0.00018, 0.00195, -0.77185,
 14:53:43.908,d3:c7:8d:a5:a9:b5, 2015-01-01 00:02:58.480, 0.004, -0.002, 0.999, -0.305, 0, 0, -0.209, 0.115, -101.052, -48.804, -9.506, -22.638, 22.3, 0.63571, -0.00018, 0.00195, -0.77185,
 14:53:43.908,d3:c7:8d:a5:a9:b5, 2015-01-01 00:02:58.480, -0.003, -0.002, 0.999, -0.305, 0, 0, -0.214, 0.115, -101.052, -48.804, -9.506, -22.638, 22.3, 0.63571, -0.00018, 0.00195, -0.77185,
 14:53:43.908,d3:c7:8d:a5:a9:b5, 2015-01-01 00:02:58.480, -0.003, -0.003, 0.999, -0.183, 0.366, 0, -0.214, 0.121, -101.052, -48.804, -9.506, -22.638, 22.3, 0.63571, -0.00018, 0.00195, -0.77185,
 14:53:43.908,d3:c7:8d:a5:a9:b5, 2015-01-01 00:02:58.480, -0.008, -0.003, 0.999, -0.183, 0.366, 0, -0.214, 0.121, -101.052, -48.804, -9.506, -22.638, 22.3, 0.63571, -0.00018, 0.00195, -0.77185,
 14:53:43.968,d3:c7:8d:a5:a9:b5, 2015-01-01 00:02:58.480, -0.008, -0.005, 1, -0.122, -0.366, 0, -0.214, 0.121, -101.052, -48.804, -9.506, -22.638, 22.3, 0.63568, -0.00037, 0.00211, -0.77188,
 14:53:43.968,d3:c7:8d:a5:a9:b5, 2015-01-01 00:02:58.480, -0.003, -0.005, 1, -0.122, -0.366, 0, -0.214, 0.115, -101.052, -48.804, -9.506, -22.638, 22.3, 0.63568, -0.00037, 0.00211, -0.77188,
 14:53:43.968,d3:c7:8d:a5:a9:b5, 2015-01-01 00:02:58.480, -0.003, -0.003, 0.998, 0.061, -0.977, 0, -0.214, 0.104, -101.052, -48.804, -9.506, -22.638, 22.3, 0.63568, -0.00037, 0.00211, -0.77188,
 14:53:43.968,d3:c7:8d:a5:a9:b5, 2015-01-01 00:02:58.480, 0.002, -0.003, 0.998, 0.061, -0.977, 0, -0.214, 0.099, -101.052, -48.804, -9.506, -22.638, 22.3, 0.63568, -0.00037, 0.00211, -0.77188,
 14:53:43.971,d3:c7:8d:a5:a9:b5, 2015-01-01 00:02:58.480, 0.002, -0.001, 1.001, 0, -0.549, 0, -0.214, 0.093, -101.052, -48.804, -9.506, -22.638, 22.3, 0.63568, -0.00037, 0.00211, -0.77188,
 14:53:43.971,d3:c7:8d:a5:a9:b5, 2015-01-01 00:02:58.480, -0.002, -0.001, 1.001, 0, -0.549, 0, -0.214, 0.088, -101.052, -48.804, -9.506, -22.638, 22.3, 0.63568, -0.00037, 0.00211, -0.77188,
 14:53:43.971,d3:c7:8d:a5:a9:b5, 2015-01-01 00:02:58.480, -0.002, -0.002, 1, -0.183, 0, 0, -0.214, 0.088, -101.052, -48.804, -9.506, -22.638, 22.3, 0.63568, -0.00037, 0.00211, -0.77188,
 14:53:43.971,d3:c7:8d:a5:a9:b5, 2015-01-01 00:02:58.480, -0.005, -0.002, 1, -0.183, 0, 0, -0.22, 0.088, -101.052, -48.804, -9.506, -22.638, 22.3, 0.63568, -0.00037, 0.00211, -0.77188,
 14:53:44.028,d3:c7:8d:a5:a9:b5, 2015-01-01 00:02:58.865, -0.005, -0.004, 0.999, -0.305, -0.305, 0, -0.22, 0.088, -101.052, -48.804, -9.506, -22.638, 22.3, 0.63568, -0.00037, 0.00211, -0.77188,
 14:53:44.028,d3:c7:8d:a5:a9:b5, 2015-01-01 00:02:58.865, 0.002, -0.004, 0.999, -0.305, -0.305, 0, -0.225, 0.082, -101.052, -48.804, -9.506, -22.638, 22.3, 0.63568, -0.00037, 0.00211, -0.77188,
 14:53:44.028,d3:c7:8d:a5:a9:b5, 2015-01-01 00:02:58.865, 0.002, -0.002, 0.998, -0.549, 0, 0, -0.231, 0.082, -101.052, -48.804, -9.506, -22.638, 22.3, 0.63568, -0.00037, 0.00211, -0.77188,
 14:53:44.028,d3:c7:8d:a5:a9:b5, 2015-01-01 00:02:58.865, 0, -0.002, 0.998, -0.549, 0, 0, -0.236, 0.082, -101.052, -48.804, -9.506, -22.638, 22.3, 0.63568, -0.00037, 0.00211, -0.77188,
 14:53:44.059,d3:c7:8d:a5:a9:b5, 2015-01-01 00:02:58.865, 0, -0.008, 0.999, -0.366, 0.61, 0, -0.236, 0.088, -101.052, -48.804, -9.506, -22.638, 22.3, 0.63568, -0.00037, 0.00211, -0.77188,
 14:53:44.059,d3:c7:8d:a5:a9:b5, 2015-01-01 00:02:58.865, -0.004, -0.008, 0.999, -0.366, 0.61, 0, -0.242, 0.093, -101.052, -48.804, -9.506, -22.638, 22.3, 0.63568, -0.00037, 0.00211, -0.77188,
 14:53:44.059,d3:c7:8d:a5:a9:b5, 2015-01-01 00:02:58.865, -0.004, -0.002, 1, 0.061, 0.427, 0, -0.242, 0.099, -101.052, -48.804, -9.506, -22.638, 22.3, 0.63568, -0.00037, 0.00211, -0.77188,
 14:53:44.059,d3:c7:8d:a5:a9:b5, 2015-01-01 00:02:58.865, -0.004, -0.002, 1, 0.061, 0.427, 0, -0.242, 0.104, -101.052, -48.804, -9.506, -22.638, 22.3, 0.63568, -0.00037, 0.00211, -0.77188,
 14:53:44.089,d3:c7:8d:a5:a9:b5, 2015-01-01 00:02:58.865, -0.004, -0.002, 0.999, 0, 0, 0, -0.242, 0.104, -101.052, -48.804, -9.506, -22.638, 22.3, 0.63568, -0.00037, 0.00211, -0.77188,
 14:53:44.089,d3:c7:8d:a5:a9:b5, 2015-01-01 00:02:58.865, -0.004, -0.002, 0.999, 0, 0, 0, -0.242, 0.104, -101.047, -48.804, -9.506, -22.638, 22.3, 0.63568, -0.00037, 0.00211, -0.77188,
 14:53:44.089,d3:c7:8d:a5:a9:b5, 2015-01-01 00:02:58.865, -0.004, -0.004, 0.999, -0.305, -0.122, 0, -0.242, 0.104, -101.047, -48.804, -9.506, -22.638, 22.3, 0.63568, -0.00037, 0.00211, -0.77188,
 14:53:44.089,d3:c7:8d:a5:a9:b5, 2015-01-01 00:02:58.865, -0.003, -0.004, 0.999, -0.305, -0.122, 0, -0.247, 0.104, -101.047, -48.804, -9.506, -22.638, 22.3, 0.63568, -0.00037, 0.00211, -0.77188,
 14:53:44.149,d3:c7:8d:a5:a9:b5, 2015-01-01 00:02:58.865, -0.003, -0.005, 0.999, -0.244, -0.305, 0, -0.247, 0.099, -101.047, -48.804, -9.506, -22.638, 22.3, 0.63568, -0.00037, 0.00211, -0.77188,
 14:53:44.149,d3:c7:8d:a5:a9:b5, 2015-01-01 00:02:58.865, -0.002, -0.005, 0.999, -0.244, -0.305, 0, -0.247, 0.099, -101.047, -48.804, -9.506, -22.638, 22.3, 0.63568, -0.00037, 0.00211, -0.77188,
 14:53:44.149,d3:c7:8d:a5:a9:b5, 2015-01-01 00:02:58.865, -0.002, -0.004, 0.999, -0.061, -0.427, 0, -0.253, 0.093, -101.047, -48.804, -9.506, -22.638, 22.3, 0.63568, -0.00037, 0.00211, -0.77188,
 14:53:44.149,d3:c7:8d:a5:a9:b5, 2015-01-01 00:02:58.865, 0.002, -0.004, 0.999, -0.061, -0.427, 0, -0.253, 0.088, -101.047, -48.804, -9.506, -22.638, 22.3, 0.63568, -0.00037, 0.00211, -0.77188,
 14:53:44.179,d3:c7:8d:a5:a9:b5, 2015-01-01 00:02:58.865, 0.002, -0.003, 1, -0.061, -0.122, 0, -0.253, 0.088, -101.047, -48.804, -9.506, -22.638, 22.3, 0.63568, -0.00037, 0.00211, -0.77188,
 14:53:44.179,d3:c7:8d:a5:a9:b5, 2015-01-01 00:02:58.865, 0.002, -0.003, 1, -0.061, -0.122, 0, -0.253, 0.088, -101.047, -48.804, -9.506, -22.638, 22.3, 0.63568, -0.00037, 0.00211, -0.77188,
 14:53:44.179,d3:c7:8d:a5:a9:b5, 2015-01-01 00:02:58.865, 0.002, -0.004, 1, 0, 0.488, 0, -0.253, 0.093, -101.047, -48.804, -9.506, -22.638, 22.3, 0.63568, -0.00037, 0.00211, -0.77188,
 14:53:44.179,d3:c7:8d:a5:a9:b5, 2015-01-01 00:02:58.865, -0.005, -0.004, 1, 0, 0.488, 0, -0.253, 0.099, -101.047, -48.804, -9.506, -22.638, 22.3, 0.63568, -0.00037, 0.00211, -0.77188,
 14:53:44.209,d3:c7:8d:a5:a9:b5, 2015-01-01 00:02:58.865, -0.005, -0.003, 0.998, 0, 0.488, 0, -0.253, 0.104, -101.047, -48.902, -9.506, -22.736, 22.3, 0.63568, -0.00037, 0.00211, -0.77188,
 14:53:44.209,d3:c7:8d:a5:a9:b5, 2015-01-01 00:02:58.865, -0.003, -0.003, 0.998, 0, 0.488, 0, -0.253, 0.11, -101.047, -48.902, -9.506, -22.736, 22.3, 0.63568, -0.00037, 0.00211, -0.77188,
 14:53:44.209,d3:c7:8d:a5:a9:b5, 2015-01-01 00:02:58.865, -0.003, -0.005, 1, 0, 0.305, 0, -0.253, 0.11, -101.047, -48.902, -9.506, -22.736, 22.3, 0.63568, -0.00037, 0.00211, -0.77188,
 14:53:44.209,d3:c7:8d:a5:a9:b5, 2015-01-01 00:02:58.865, -0.003, -0.005, 1, 0, 0.305, 0, -0.253, 0.115, -101.047, -48.902, -9.506, -22.736, 22.3, 0.63568, -0.00037, 0.00211, -0.77188,
 14:53:44.269,d3:c7:8d:a5:a9:b5, 2015-01-01 00:02:58.865, -0.003, -0.005, 1, 0.244, 0.122, 0, -0.247, 0.115, -101.047, -48.902, -9.506, -22.736, 22.3, 0.63568, -0.00037, 0.00211, -0.77188,
 14:53:44.269,d3:c7:8d:a5:a9:b5, 2015-01-01 00:02:58.865, -0.003, -0.004, 0.998, 0.366, 0.183, 0, -0.247, 0.115, -101.041, -48.902, -9.506, -22.736, 22.3, 0.63568, -0.00037, 0.00211, -0.77188,
 14:53:44.269,d3:c7:8d:a5:a9:b5, 2015-01-01 00:02:58.865, -0.002, -0.004, 0.998, 0.366, 0.183, 0, -0.242, 0.121, -101.041, -48.902, -9.506, -22.736, 22.3, 0.63568, -0.00037, 0.00211, -0.77188,
 14:53:44.269,d3:c7:8d:a5:a9:b5, 2015-01-01 00:02:58.865, -0.002, -0.002, 1, 0.061, 0.427, 0, -0.242, 0.121, -101.041, -48.902, -9.506, -22.736, 22.3, 0.63568, -0.00037, 0.00211, -0.77188,
 14:53:44.299,d3:c7:8d:a5:a9:b5, 2015-01-01 00:02:58.865, -0.005, -0.002, 1, 0.061, 0.427, 0, -0.242, 0.126, -101.041, -48.902, -9.506, -22.736, 22.3, 0.63574, -0.00055, 0.00232, -0.77185,
 14:53:44.299,d3:c7:8d:a5:a9:b5, 2015-01-01 00:02:58.865, -0.005, -0.004, 1, -0.122, 0.122, 0, -0.242, 0.126, -101.041, -48.902, -9.506, -22.736, 22.3, 0.63574, -0.00055, 0.00232, -0.77185,
 14:53:44.299,d3:c7:8d:a5:a9:b5, 2015-01-01 00:02:58.865, -0.003, -0.004, 1, -0.122, 0.122, 0, -0.242, 0.132, -101.041, -48.902, -9.506, -22.736, 22.3, 0.63574, -0.00055, 0.00232, -0.77185,
 14:53:44.299,d3:c7:8d:a5:a9:b5, 2015-01-01 00:02:58.865, -0.003, -0.004, 0.999, -0.244, -0.061, 0, -0.242, 0.132, -101.041, -48.902, -9.506, -22.736, 22.3, 0.63574, -0.00055, 0.00232, -0.77185,
 14:53:44.330,d3:c7:8d:a5:a9:b5, 2015-01-01 00:02:58.865, 0, -0.004, 0.999, -0.244, -0.061, 0, -0.247, 0.132, -101.041, -48.902, -9.506, -22.736, 22.3, 0.63574, -0.00055, 0.00232, -0.77185,
 14:53:44.330,d3:c7:8d:a5:a9:b5, 2015-01-01 00:02:58.865, 0, -0.005, 1, -0.122, 0.061, 0, -0.247, 0.132, -101.041, -48.902, -9.506, -22.736, 22.3, 0.63574, -0.00055, 0.00232, -0.77185,
 14:53:44.330,d3:c7:8d:a5:a9:b5, 2015-01-01 00:02:58.865, 0.002, -0.005, 1, -0.122, 0.061, 0, -0.247, 0.132, -101.041, -48.902, -9.506, -22.736, 22.3, 0.63574, -0.00055, 0.00232, -0.77185,
 14:53:44.330,d3:c7:8d:a5:a9:b5, 2015-01-01 00:02:58.865, 0.002, -0.004, 0.998, 0, 0.732, 0, -0.247, 0.137, -101.041, -48.902, -9.506, -22.736, 22.3, 0.63574, -0.00055, 0.00232, -0.77185,
 14:53:44.389,d3:c7:8d:a5:a9:b5, 2015-01-01 00:02:59.225, -0.003, -0.004, 0.998, 0, 0.732, 0, -0.247, 0.143, -101.047, -48.902, -9.506, -22.736, 22.3, 0.63574, -0.00055, 0.00232, -0.77185,
 14:53:44.389,d3:c7:8d:a5:a9:b5, 2015-01-01 00:02:59.225, -0.003, -0.003, 1, 0, 1.16, 0, -0.247, 0.154, -101.047, -48.902, -9.506, -22.736, 22.3, 0.63574, -0.00055, 0.00232, -0.77185,
 14:53:44.389,d3:c7:8d:a5:a9:b5, 2015-01-01 00:02:59.225, -0.01, -0.003, 1, 0, 1.16, 0, -0.247, 0.165, -101.047, -48.902, -9.506, -22.736, 22.3, 0.63574, -0.00055, 0.00232, -0.77185,
 14:53:44.389,d3:c7:8d:a5:a9:b5, 2015-01-01 00:02:59.225, -0.01, -0.005, 0.999, 0, 0.549, 0, -0.247, 0.17, -101.047, -48.902, -9.506, -22.736, 22.3, 0.63574, -0.00055, 0.00232, -0.77185,
 14:53:44.419,d3:c7:8d:a5:a9:b5, 2015-01-01 00:02:59.225, -0.008, -0.005, 0.999, 0, 0.549, 0, -0.247, 0.176, -101.047, -48.902, -9.506, -22.736, 22.3, 0.63574, -0.00055, 0.00232, -0.77185,
 14:53:44.419,d3:c7:8d:a5:a9:b5, 2015-01-01 00:02:59.225, -0.008, -0.004, 1, 0, -0.549, 0, -0.247, 0.176, -101.047, -48.902, -9.506, -22.736, 22.3, 0.63574, -0.00055, 0.00232, -0.77185,
 14:53:44.419,d3:c7:8d:a5:a9:b5, 2015-01-01 00:02:59.225, -0.004, -0.004, 1, 0, -0.549, 0, -0.247, 0.17, -101.047, -48.902, -9.506, -22.736, 22.3, 0.63574, -0.00055, 0.00232, -0.77185,
 14:53:44.419,d3:c7:8d:a5:a9:b5, 2015-01-01 00:02:59.225, -0.004, -0.003, 0.999, 0, -0.671, 0, -0.247, 0.165, -101.047, -48.902, -9.506, -22.736, 22.3, 0.63574, -0.00055, 0.00232, -0.77185,
 14:53:44.450,d3:c7:8d:a5:a9:b5, 2015-01-01 00:02:59.225, 0, -0.003, 0.999, 0, -0.671, 0, -0.247, 0.159, -101.047, -48.902, -9.506, -22.736, 22.3, 0.63574, -0.00055, 0.00232, -0.77185,
 14:53:44.450,d3:c7:8d:a5:a9:b5, 2015-01-01 00:02:59.225, 0, -0.003, 1, -0.061, -0.305, 0, -0.247, 0.154, -101.047, -48.902, -9.506, -22.736, 22.3, 0.63574, -0.00055, 0.00232, -0.77185,
 14:53:44.450,d3:c7:8d:a5:a9:b5, 2015-01-01 00:02:59.225, 0, -0.003, 1, -0.061, -0.305, 0, -0.247, 0.154, -101.047, -48.902, -9.506, -22.736, 22.3, 0.63574, -0.00055, 0.00232, -0.77185,
 14:53:44.450,d3:c7:8d:a5:a9:b5, 2015-01-01 00:02:59.225, 0, -0.002, 0.998, -0.244, 0.549, 0, -0.253, 0.154, -101.047, -48.902, -9.506, -22.736, 22.3, 0.63574, -0.00055, 0.00232, -0.77185,
 14:53:44.509,d3:c7:8d:a5:a9:b5, 2015-01-01 00:02:59.225, -0.002, -0.002, 0.998, -0.244, 0.549, 0, -0.253, 0.159, -101.047, -48.902, -9.506, -22.736, 22.3, 0.63574, -0.00055, 0.00232, -0.77185,
 14:53:44.509,d3:c7:8d:a5:a9:b5, 2015-01-01 00:02:59.225, -0.002, -0.005, 1, -0.244, 0.854, 0, -0.253, 0.165, -101.047, -48.902, -9.506, -22.736, 22.3, 0.63574, -0.00055, 0.00232, -0.77185,
 14:53:44.509,d3:c7:8d:a5:a9:b5, 2015-01-01 00:02:59.225, -0.004, -0.005, 1, -0.244, 0.854, 0, -0.258, 0.176, -101.047, -48.902, -9.506, -22.736, 22.3, 0.63574, -0.00055, 0.00232, -0.77185,
 14:53:44.509,d3:c7:8d:a5:a9:b5, 2015-01-01 00:02:59.225, -0.004, -0.004, 0.999, -0.061, 0.854, 0, -0.258, 0.181, -101.047, -48.902, -9.506, -22.736, 22.3, 0.63574, -0.00055, 0.00232, -0.77185,
 14:53:44.540,d3:c7:8d:a5:a9:b5, 2015-01-01 00:02:59.225, -0.007, -0.004, 0.999, -0.061, 0.854, 0, -0.258, 0.192, -101.047, -48.902, -9.506, -22.736, 22.3, 0.63574, -0.00055, 0.00232, -0.77185,
 14:53:44.540,d3:c7:8d:a5:a9:b5, 2015-01-01 00:02:59.225, -0.007, -0.006, 1, 0, 0.488, 0, -0.258, 0.198, -101.047, -48.902, -9.506, -22.736, 22.3, 0.63574, -0.00055, 0.00232, -0.77185,
 14:53:44.540,d3:c7:8d:a5:a9:b5, 2015-01-01 00:02:59.225, -0.006, -0.006, 1, 0, 0.488, 0, -0.258, 0.203, -101.047, -48.902, -9.506, -22.736, 22.3, 0.63574, -0.00055, 0.00232, -0.77185,
 14:53:44.540,d3:c7:8d:a5:a9:b5, 2015-01-01 00:02:59.225, -0.006, -0.004, 0.999, 0, 0.122, 0, -0.258, 0.203, -101.047, -48.902, -9.506, -22.736, 22.3, 0.63574, -0.00055, 0.00232, -0.77185,
 14:53:44.569,d3:c7:8d:a5:a9:b5, 2015-01-01 00:02:59.225, -0.006, -0.004, 0.999, 0, 0.122, 0, -0.258, 0.209, -101.047, -48.706, -9.408, -22.736, 22.3, 0.63574, -0.00055, 0.00232, -0.77185,
 14:53:44.569,d3:c7:8d:a5:a9:b5, 2015-01-01 00:02:59.225, -0.006, -0.005, 1, -0.183, -0.183, 0, -0.258, 0.209, -101.047, -48.706, -9.408, -22.736, 22.3, 0.63574, -0.00055, 0.00232, -0.77185,
 14:53:44.569,d3:c7:8d:a5:a9:b5, 2015-01-01 00:02:59.225, 0, -0.005, 1, -0.183, -0.183, 0, -0.264, 0.203, -101.047, -48.706, -9.408, -22.736, 22.3, 0.63574, -0.00055, 0.00232, -0.77185,
 14:53:44.569,d3:c7:8d:a5:a9:b5, 2015-01-01 00:02:59.225, 0, -0.005, 0.999, -0.122, 0, 0, -0.264, 0.203, -101.047, -48.706, -9.408, -22.736, 22.3, 0.63574, -0.00055, 0.00232, -0.77185,
 14:53:44.629,d3:c7:8d:a5:a9:b5, 2015-01-01 00:02:59.225, -0.003, -0.005, 0.999, -0.122, 0, 0, -0.264, 0.203, -101.047, -48.706, -9.408, -22.736, 22.3, 0.63574, -0.00055, 0.00232, -0.77185,
 14:53:44.629,d3:c7:8d:a5:a9:b5, 2015-01-01 00:02:59.225, -0.003, -0.004, 0.999, 0, 0.427, 0, -0.264, 0.209, -101.047, -48.706, -9.408, -22.736, 22.3, 0.63574, -0.00055, 0.00232, -0.77185,
 14:53:44.629,d3:c7:8d:a5:a9:b5, 2015-01-01 00:02:59.225, -0.008, -0.004, 0.999, 0, 0.427, 0, -0.264, 0.209, -101.047, -48.706, -9.408, -22.736, 22.3, 0.63574, -0.00055, 0.00232, -0.77185,
 14:53:44.629,d3:c7:8d:a5:a9:b5, 2015-01-01 00:02:59.225, -0.008, -0.004, 1, 0, 0.366, 0, -0.264, 0.214, -101.047, -48.706, -9.408, -22.736, 22.3, 0.63574, -0.00055, 0.00232, -0.77185,
 14:53:44.660,d3:c7:8d:a5:a9:b5, 2015-01-01 00:02:59.225, -0.006, -0.004, 1, 0, 0.366, 0, -0.264, 0.22, -101.047, -48.706, -9.408, -22.736, 22.3, 0.63571, -3E-05, 0.00296, -0.77185,
 14:53:44.660,d3:c7:8d:a5:a9:b5, 2015-01-01 00:02:59.225, -0.006, -0.004, 0.999, -0.244, 0, 0, -0.264, 0.22, -101.047, -48.706, -9.408, -22.736, 22.3, 0.63571, -3E-05, 0.00296, -0.77185,
 14:53:44.660,d3:c7:8d:a5:a9:b5, 2015-01-01 00:02:59.225, -0.002, -0.004, 0.999, -0.244, 0, 0, -0.269, 0.22, -101.047, -48.706, -9.408, -22.736, 22.3, 0.63571, -3E-05, 0.00296, -0.77185,
 14:53:44.660,d3:c7:8d:a5:a9:b5, 2015-01-01 00:02:59.225, -0.002, -0.005, 1, -0.183, 0, 0, -0.269, 0.22, -101.047, -48.706, -9.408, -22.736, 22.3, 0.63571, -3E-05, 0.00296, -0.77185,
 14:53:44.689,d3:c7:8d:a5:a9:b5, 2015-01-01 00:02:59.225, -0.001, -0.005, 1, -0.183, 0, 0, -0.275, 0.22, -101.047, -48.706, -9.408, -22.736, 22.3, 0.63571, -3E-05, 0.00296, -0.77185,
 14:53:44.690,d3:c7:8d:a5:a9:b5, 2015-01-01 00:02:59.225, -0.001, -0.001, 0.998, -0.61, 1.038, 0, -0.275, 0.225, -101.047, -48.706, -9.408, -22.736, 22.3, 0.63571, -3E-05, 0.00296, -0.77185,
 14:53:44.690,d3:c7:8d:a5:a9:b5, 2015-01-01 00:02:59.225, -0.01, -0.001, 0.998, -0.61, 1.038, 0, -0.28, 0.236, -101.047, -48.706, -9.408, -22.736, 22.3, 0.63571, -3E-05, 0.00296, -0.77185,
 14:53:44.690,d3:c7:8d:a5:a9:b5, 2015-01-01 00:02:59.225, -0.01, -0.006, 1.001, -0.122, 0.122, 0, -0.286, 0.242, -101.047, -48.706, -9.408, -22.736, 22.3, 0.63571, -3E-05, 0.00296, -0.77185,
 14:53:44.750,d3:c7:8d:a5:a9:b5, 2015-01-01 00:02:59.580, -0.008, -0.006, 1.001, -0.122, 0.122, 0, -0.286, 0.242, -101.047, -48.706, -9.408, -22.736, 22.3, 0.63571, -3E-05, 0.00296, -0.77185,
 14:53:44.750,d3:c7:8d:a5:a9:b5, 2015-01-01 00:02:59.580, -0.008, -0.006, 0.999, -0.122, -0.366, 0, -0.286, 0.236, -101.041, -48.706, -9.408, -22.736, 22.3, 0.63571, -3E-05, 0.00296, -0.77185,
 14:53:44.750,d3:c7:8d:a5:a9:b5, 2015-01-01 00:02:59.580, -0.004, -0.006, 0.999, -0.122, -0.366, 0, -0.286, 0.236, -101.041, -48.706, -9.408, -22.736, 22.3, 0.63571, -3E-05, 0.00296, -0.77185,
 14:53:44.750,d3:c7:8d:a5:a9:b5, 2015-01-01 00:02:59.580, -0.004, -0.005, 0.998, -0.244, -0.488, 0, -0.291, 0.231, -101.041, -48.706, -9.408, -22.736, 22.3, 0.63571, -3E-05, 0.00296, -0.77185,
 14:53:44.778,d3:c7:8d:a5:a9:b5, 2015-01-01 00:02:59.580, -0.002, -0.005, 0.998, -0.244, -0.488, 0, -0.291, 0.225, -101.041, -48.706, -9.408, -22.736, 22.3, 0.63571, -3E-05, 0.00296, -0.77185,
 14:53:44.778,d3:c7:8d:a5:a9:b5, 2015-01-01 00:02:59.580, -0.002, -0.006, 1, -0.183, 0, 0, -0.291, 0.225, -101.041, -48.706, -9.408, -22.736, 22.3, 0.63571, -3E-05, 0.00296, -0.77185,
 14:53:44.778,d3:c7:8d:a5:a9:b5, 2015-01-01 00:02:59.580, -0.004, -0.006, 1, -0.183, 0, 0, -0.297, 0.225, -101.041, -48.706, -9.408, -22.736, 22.3, 0.63571, -3E-05, 0.00296, -0.77185,
 14:53:44.778,d3:c7:8d:a5:a9:b5, 2015-01-01 00:02:59.580, -0.004, -0.004, 1, 0, 0.122, 0, -0.297, 0.225, -101.041, -48.706, -9.408, -22.736, 22.3, 0.63571, -3E-05, 0.00296, -0.77185,
 14:53:44.808,d3:c7:8d:a5:a9:b5, 2015-01-01 00:02:59.580, -0.004, -0.004, 1, 0, 0.122, 0, -0.297, 0.231, -101.041, -48.706, -9.408, -22.736, 22.3, 0.63571, -3E-05, 0.00296, -0.77185,
 14:53:44.808,d3:c7:8d:a5:a9:b5, 2015-01-01 00:02:59.580, -0.004, -0.004, 1, -0.061, 0.183, 0, -0.297, 0.231, -101.041, -48.706, -9.408, -22.736, 22.3, 0.63571, -3E-05, 0.00296, -0.77185,
 14:53:44.808,d3:c7:8d:a5:a9:b5, 2015-01-01 00:02:59.580, -0.007, -0.004, 1, -0.061, 0.183, 0, -0.297, 0.231, -101.041, -48.706, -9.408, -22.736, 22.3, 0.63571, -3E-05, 0.00296, -0.77185,
 14:53:44.808,d3:c7:8d:a5:a9:b5, 2015-01-01 00:02:59.580, -0.007, -0.007, 1, 0, 0.122, 0, -0.297, 0.236, -101.041, -48.706, -9.408, -22.736, 22.3, 0.63571, -3E-05, 0.00296, -0.77185,
 14:53:44.869,d3:c7:8d:a5:a9:b5, 2015-01-01 00:02:59.580, -0.009, -0.007, 1, 0, 0.122, 0, -0.297, 0.236, -101.041, -48.706, -9.408, -22.736, 22.3, 0.63571, -3E-05, 0.00296, -0.77185,
 14:53:44.869,d3:c7:8d:a5:a9:b5, 2015-01-01 00:02:59.580, -0.009, -0.006, 0.998, 0, -0.427, 0, -0.297, 0.231, -101.041, -48.706, -9.408, -22.736, 22.3, 0.63571, -3E-05, 0.00296, -0.77185,
 14:53:44.869,d3:c7:8d:a5:a9:b5, 2015-01-01 00:02:59.580, -0.002, -0.006, 0.998, 0, -0.427, 0, -0.297, 0.231, -101.041, -48.706, -9.408, -22.736, 22.3, 0.63571, -3E-05, 0.00296, -0.77185,
 14:53:44.869,d3:c7:8d:a5:a9:b5, 2015-01-01 00:02:59.580, -0.002, -0.004, 0.999, 0, -0.61, 0, -0.297, 0.225, -101.041, -48.706, -9.408, -22.736, 22.3, 0.63571, -3E-05, 0.00296, -0.77185,
 14:53:44.899,d3:c7:8d:a5:a9:b5, 2015-01-01 00:02:59.580, 0.001, -0.004, 0.999, 0, -0.61, 0, -0.297, 0.22, -101.041, -48.706, -9.408, -22.736, 22.3, 0.63571, -3E-05, 0.00296, -0.77185,
 14:53:44.899,d3:c7:8d:a5:a9:b5, 2015-01-01 00:02:59.580, 0.001, -0.003, 1, -0.061, 0.061, 0, -0.297, 0.22, -101.041, -48.706, -9.408, -22.736, 22.3, 0.63571, -3E-05, 0.00296, -0.77185,
 14:53:44.899,d3:c7:8d:a5:a9:b5, 2015-01-01 00:02:59.580, -0.006, -0.003, 1, -0.061, 0.061, 0, -0.297, 0.22, -101.041, -48.706, -9.408, -22.736, 22.3, 0.63571, -3E-05, 0.00296, -0.77185,
 14:53:44.899,d3:c7:8d:a5:a9:b5, 2015-01-01 00:02:59.580, -0.006, -0.005, 0.999, -0.122, 0.427, 0, -0.297, 0.225, -101.041, -48.706, -9.408, -22.736, 22.3, 0.63571, -3E-05, 0.00296, -0.77185,
 14:53:44.929,d3:c7:8d:a5:a9:b5, 2015-01-01 00:02:59.580, -0.007, -0.005, 0.999, -0.122, 0.427, 0, -0.302, 0.225, -101.041, -48.804, -9.408, -22.736, 22.3, 0.63571, -3E-05, 0.00296, -0.77185,
 14:53:44.929,d3:c7:8d:a5:a9:b5, 2015-01-01 00:02:59.580, -0.007, -0.005, 0.999, 0, -0.061, 0, -0.302, 0.225, -101.041, -48.804, -9.408, -22.736, 22.3, 0.63571, -3E-05, 0.00296, -0.77185,
 14:53:44.929,d3:c7:8d:a5:a9:b5, 2015-01-01 00:02:59.580, -0.005, -0.005, 0.999, 0, -0.061, 0, -0.302, 0.225, -101.041, -48.804, -9.408, -22.736, 22.3, 0.63571, -3E-05, 0.00296, -0.77185,
 14:53:44.929,d3:c7:8d:a5:a9:b5, 2015-01-01 00:02:59.580, -0.005, -0.006, 0.998, 0, -0.244, 0, -0.302, 0.225, -101.041, -48.804, -9.408, -22.736, 22.3, 0.63571, -3E-05, 0.00296, -0.77185,
 14:53:44.991,d3:c7:8d:a5:a9:b5, 2015-01-01 00:02:59.580, -0.003, -0.006, 0.998, 0, -0.244, 0, -0.302, 0.225, -101.041, -48.804, -9.408, -22.736, 22.3, 0.63571, -3E-05, 0.00296, -0.77185,
 14:53:44.991,d3:c7:8d:a5:a9:b5, 2015-01-01 00:02:59.580, -0.003, -0.004, 0.999, 0, -0.061, 0, -0.302, 0.225, -101.041, -48.804, -9.408, -22.736, 22.3, 0.63571, -3E-05, 0.00296, -0.77185,
 14:53:44.991,d3:c7:8d:a5:a9:b5, 2015-01-01 00:02:59.580, -0.003, -0.004, 0.999, 0, -0.061, 0, -0.302, 0.22, -101.041, -48.804, -9.408, -22.736, 22.3, 0.63571, -3E-05, 0.00296, -0.77185,
 14:53:44.991,d3:c7:8d:a5:a9:b5, 2015-01-01 00:02:59.580, -0.003, -0.004, 0.998, -0.061, -0.061, 0, -0.302, 0.22, -101.041, -48.804, -9.408, -22.736, 22.3, 0.63571, -3E-05, 0.00296, -0.77185,
 14:53:45.020,d3:c7:8d:a5:a9:b5, 2015-01-01 00:02:59.580, 0.002, -0.004, 0.998, -0.061, -0.061, 0, -0.302, 0.22, -101.041, -48.804, -9.408, -22.736, 22.3, 0.63574, -0.00015, 0.00327, -0.77182,
 14:53:45.020,d3:c7:8d:a5:a9:b5, 2015-01-01 00:02:59.580, 0.002, -0.002, 1, -0.366, 0.671, 0, -0.302, 0.231, -101.041, -48.804, -9.408, -22.736, 22.3, 0.63574, -0.00015, 0.00327, -0.77182,
 14:53:45.020,d3:c7:8d:a5:a9:b5, 2015-01-01 00:02:59.580, -0.002, -0.002, 1, -0.366, 0.671, 0, -0.308, 0.236, -101.041, -48.804, -9.408, -22.736, 22.3, 0.63574, -0.00015, 0.00327, -0.77182,
 14:53:45.020,d3:c7:8d:a5:a9:b5, 2015-01-01 00:02:59.580, -0.002, -0.009, 1, -0.732, 2.136, 0, -0.313, 0.258, -101.047, -48.804, -9.408, -22.736, 22.3, 0.63574, -0.00015, 0.00327, -0.77182,
 14:53:45.049,d3:c7:8d:a5:a9:b5, 2015-01-01 00:02:59.580, -0.013, -0.009, 1, -0.732, 2.136, 0, -0.324, 0.275, -101.047, -48.804, -9.408, -22.736, 22.3, 0.63574, -0.00015, 0.00327, -0.77182,
 14:53:45.049,d3:c7:8d:a5:a9:b5, 2015-01-01 00:02:59.580, -0.013, -0.007, 0.998, -0.061, 0.854, 0, -0.324, 0.286, -101.047, -48.804, -9.408, -22.736, 22.3, 0.63574, -0.00015, 0.00327, -0.77182,
 14:53:45.049,d3:c7:8d:a5:a9:b5, 2015-01-01 00:02:59.580, -0.014, -0.007, 0.998, -0.061, 0.854, 0, -0.324, 0.291, -101.047, -48.804, -9.408, -22.736, 22.3, 0.63574, -0.00015, 0.00327, -0.77182,
 14:53:45.049,d3:c7:8d:a5:a9:b5, 2015-01-01 00:02:59.580, -0.014, -0.005, 1, -0.122, -0.366, 0, -0.324, 0.291, -101.047, -48.804, -9.408, -22.736, 22.3, 0.63574, -0.00015, 0.00327, -0.77182,
 14:53:45.139,d3:c7:8d:a5:a9:b5, 2015-01-01 00:02:59.940, -0.006, -0.005, 1, -0.122, -0.366, 0, -0.324, 0.286, -101.047, -48.804, -9.408, -22.736, 22.3, 0.63574, -0.00015, 0.00327, -0.77182,
 14:53:45.139,d3:c7:8d:a5:a9:b5, 2015-01-01 00:02:59.940, -0.006, -0.005, 1, -0.305, -1.221, 0, -0.33, 0.275, -101.047, -48.804, -9.408, -22.736, 22.3, 0.63574, -0.00015, 0.00327, -0.77182,
 14:53:45.139,d3:c7:8d:a5:a9:b5, 2015-01-01 00:02:59.940, 0.002, -0.005, 1, -0.305, -1.221, 0, -0.335, 0.264, -101.047, -48.804, -9.408, -22.736, 22.3, 0.63574, -0.00015, 0.00327, -0.77182,
 14:53:45.139,d3:c7:8d:a5:a9:b5, 2015-01-01 00:02:59.940, 0.002, -0.005, 0.999, -0.244, -0.488, 0, -0.335, 0.258, -101.047, -48.804, -9.408, -22.736, 22.3, 0.63574, -0.00015, 0.00327, -0.77182,
 14:53:45.139,d3:c7:8d:a5:a9:b5, 2015-01-01 00:02:59.940, 0, -0.005, 0.999, -0.244, -0.488, 0, -0.335, 0.253, -101.047, -48.804, -9.408, -22.736, 22.3, 0.63574, -0.00015, 0.00327, -0.77182,
 14:53:45.139,d3:c7:8d:a5:a9:b5, 2015-01-01 00:02:59.940, -0.005, -0.008, 0.999, 0, 0.305, 0, -0.335, 0.258, -101.047, -48.804, -9.408, -22.736, 22.3, 0.63574, -0.00015, 0.00327, -0.77182,
 14:53:45.139,d3:c7:8d:a5:a9:b5, 2015-01-01 00:02:59.940, -0.005, -0.005, 1.001, 0.183, 0.732, 0, -0.335, 0.264, -101.047, -48.804, -9.408, -22.736, 22.3, 0.63574, -0.00015, 0.00327, -0.77182,
 14:53:45.139,d3:c7:8d:a5:a9:b5, 2015-01-01 00:02:59.940, -0.016, -0.005, 1.001, 0.183, 0.732, 0, -0.335, 0.269, -101.047, -48.804, -9.408, -22.736, 22.3, 0.63574, -0.00015, 0.00327, -0.77182,
 14:53:45.169,d3:c7:8d:a5:a9:b5, 2015-01-01 00:02:59.940, -0.016, -0.006, 0.999, 0.305, -0.244, 0, -0.33, 0.275, -101.047, -48.804, -9.408, -22.736, 22.3, 0.63574, -0.00015, 0.00327, -0.77182,
 14:53:45.169,d3:c7:8d:a5:a9:b5, 2015-01-01 00:02:59.940, -0.007, -0.006, 0.999, 0.305, -0.244, 0, -0.33, 0.269, -101.047, -48.804, -9.408, -22.736, 22.3, 0.63574, -0.00015, 0.00327, -0.77182,
 14:53:45.169,d3:c7:8d:a5:a9:b5, 2015-01-01 00:02:59.940, -0.007, -0.005, 0.999, 0.305, -0.916, 0, -0.324, 0.264, -101.047, -48.804, -9.408, -22.736, 22.3, 0.63574, -0.00015, 0.00327, -0.77182,
 14:53:45.169,d3:c7:8d:a5:a9:b5, 2015-01-01 00:02:59.940, -0.005, -0.005, 0.999, 0.305, -0.916, 0, -0.324, 0.258, -101.047, -48.804, -9.408, -22.736, 22.3, 0.63574, -0.00015, 0.00327, -0.77182,
 14:53:45.229,d3:c7:8d:a5:a9:b5, 2015-01-01 00:02:59.940, -0.005, -0.005, 0.999, 0.061, -1.282, 0, -0.324, 0.247, -101.047, -48.804, -9.408, -22.736, 22.3, 0.63574, -0.00015, 0.00327, -0.77182,
 14:53:45.229,d3:c7:8d:a5:a9:b5, 2015-01-01 00:02:59.940, -0.004, -0.005, 0.999, 0.061, -1.282, 0, -0.319, 0.236, -101.047, -48.804, -9.408, -22.736, 22.3, 0.63574, -0.00015, 0.00327, -0.77182,
 14:53:45.229,d3:c7:8d:a5:a9:b5, 2015-01-01 00:02:59.940, -0.004, -0.006, 0.998, 0, -1.099, 0, -0.319, 0.225, -101.047, -48.804, -9.408, -22.736, 22.3, 0.63574, -0.00015, 0.00327, -0.77182,
 14:53:45.229,d3:c7:8d:a5:a9:b5, 2015-01-01 00:02:59.940, 0.001, -0.006, 0.998, 0, -1.099, 0, -0.319, 0.214, -101.047, -48.804, -9.408, -22.736, 22.3, 0.63574, -0.00015, 0.00327, -0.77182,
 14:53:45.259,d3:c7:8d:a5:a9:b5, 2015-01-01 00:02:59.940, 0.001, -0.004, 0.999, -0.183, -0.732, 0, -0.324, 0.203, -101.047, -48.804, -9.408, -22.736, 22.3, 0.63574, -0.00015, 0.00327, -0.77182,
 14:53:45.259,d3:c7:8d:a5:a9:b5, 2015-01-01 00:02:59.940, 0, -0.004, 0.999, -0.183, -0.732, 0, -0.324, 0.198, -101.041, -48.804, -9.408, -22.736, 22.3, 0.63574, -0.00015, 0.00327, -0.77182,
 14:53:45.259,d3:c7:8d:a5:a9:b5, 2015-01-01 00:02:59.940, 0, -0.006, 1, -0.061, 0, 0, -0.324, 0.192, -101.041, -48.804, -9.408, -22.736, 22.3, 0.63574, -0.00015, 0.00327, -0.77182,
 14:53:45.259,d3:c7:8d:a5:a9:b5, 2015-01-01 00:02:59.940, -0.006, -0.006, 1, -0.061, 0, 0, -0.324, 0.192, -101.041, -48.804, -9.408, -22.736, 22.3, 0.63574, -0.00015, 0.00327, -0.77182,
 14:53:45.320,d3:c7:8d:a5:a9:b5, 2015-01-01 00:02:59.940, -0.006, -0.008, 0.999, 0.244, 0.061, 0, -0.324, 0.198, -101.041, -48.706, -9.408, -22.736, 22.3, 0.63574, -0.00015, 0.00327, -0.77182,
 14:53:45.320,d3:c7:8d:a5:a9:b5, 2015-01-01 00:02:59.940, -0.004, -0.008, 0.999, 0.244, 0.061, 0, -0.324, 0.198, -101.047, -48.706, -9.408, -22.736, 22.3, 0.63574, -0.00015, 0.00327, -0.77182,
 14:53:45.320,d3:c7:8d:a5:a9:b5, 2015-01-01 00:02:59.940, -0.004, -0.005, 0.999, 0.244, -0.183, 0, -0.319, 0.198, -101.047, -48.706, -9.408, -22.736, 22.3, 0.63574, -0.00015, 0.00327, -0.77182,
 14:53:45.320,d3:c7:8d:a5:a9:b5, 2015-01-01 00:02:59.940, 0.001, -0.005, 0.999, 0.244, -0.183, 0, -0.319, 0.192, -101.047, -48.706, -9.408, -22.736, 22.3, 0.63574, -0.00015, 0.00327, -0.77182,
 14:53:45.348,d3:c7:8d:a5:a9:b5, 2015-01-01 00:02:59.940, 0.001, -0.004, 0.999, 0.061, 0.366, 0, -0.319, 0.198, -101.047, -48.706, -9.408, -22.736, 22.3, 0.63574, -0.00015, 0.00327, -0.77182,
 14:53:45.348,d3:c7:8d:a5:a9:b5, 2015-01-01 00:02:59.940, 0, -0.004, 0.999, 0.061, 0.366, 0, -0.313, 0.198, -101.047, -48.706, -9.408, -22.736, 22.3, 0.63574, -0.00015, 0.00327, -0.77182,
 14:53:45.348,d3:c7:8d:a5:a9:b5, 2015-01-01 00:02:59.940, 0, -0.004, 1, 0, 1.16, 0, -0.313, 0.209, -101.047, -48.706, -9.408, -22.736, 22.3, 0.63574, -0.00015, 0.00327, -0.77182,
 14:53:45.348,d3:c7:8d:a5:a9:b5, 2015-01-01 00:02:59.940, -0.013, -0.004, 1, 0, 1.16, 0, -0.313, 0.22, -101.047, -48.706, -9.408, -22.736, 22.3, 0.63574, -0.00015, 0.00327, -0.77182,
 14:53:45.379,d3:c7:8d:a5:a9:b5, 2015-01-01 00:02:59.940, -0.013, -0.007, 0.999, 0, 0.671, 0, -0.313, 0.225, -101.047, -48.706, -9.408, -22.736, 22.3, 0.63574, -0.0004, 0.00327, -0.77185,
 14:53:45.379,d3:c7:8d:a5:a9:b5, 2015-01-01 00:02:59.940, -0.009, -0.007, 0.999, 0, 0.671, 0, -0.313, 0.236, -101.047, -48.706, -9.408, -22.736, 22.3, 0.63574, -0.0004, 0.00327, -0.77185,
 14:53:45.379,d3:c7:8d:a5:a9:b5, 2015-01-01 00:02:59.940, -0.009, -0.006, 0.997, 0.061, -0.366, 0, -0.313, 0.236, -101.047, -48.706, -9.408, -22.736, 22.3, 0.63574, -0.0004, 0.00327, -0.77185,
 14:53:45.379,d3:c7:8d:a5:a9:b5, 2015-01-01 00:02:59.940, -0.001, -0.006, 0.997, 0.061, -0.366, 0, -0.313, 0.231, -101.041, -48.706, -9.408, -22.736, 22.3, 0.63574, -0.0004, 0.00327, -0.77185,
 14:53:45.439,d3:c7:8d:a5:a9:b5, 2015-01-01 00:02:59.940, -0.001, -0.005, 0.999, 0.122, -0.305, 0, -0.313, 0.231, -101.041, -48.706, -9.408, -22.736, 22.3, 0.63574, -0.0004, 0.00327, -0.77185,
 14:53:45.439,d3:c7:8d:a5:a9:b5, 2015-01-01 00:02:59.940, -0.002, -0.005, 0.999, 0.122, -0.305, 0, -0.313, 0.225, -101.041, -48.706, -9.408, -22.736, 22.3, 0.63574, -0.0004, 0.00327, -0.77185,
 14:53:45.439,d3:c7:8d:a5:a9:b5, 2015-01-01 00:02:59.940, -0.002, -0.004, 0.999, 0, 0.488, 0, -0.313, 0.225, -101.041, -48.706, -9.408, -22.736, 22.3, 0.63574, -0.0004, 0.00327, -0.77185,
 14:53:45.439,d3:c7:8d:a5:a9:b5, 2015-01-01 00:02:59.940, -0.003, -0.004, 0.999, 0, 0.488, 0, -0.313, 0.231, -101.041, -48.706, -9.408, -22.736, 22.3, 0.63574, -0.0004, 0.00327, -0.77185,
 14:53:45.469,d3:c7:8d:a5:a9:b5, 2015-01-01 00:03:00.295, -0.003, -0.004, 1, -0.122, 0.793, 0, -0.313, 0.236, -101.041, -48.706, -9.408, -22.736, 22.3, 0.63574, -0.0004, 0.00327, -0.77185,
 14:53:45.469,d3:c7:8d:a5:a9:b5, 2015-01-01 00:03:00.295, -0.012, -0.004, 1, -0.122, 0.793, 0, -0.313, 0.247, -101.041, -48.706, -9.408, -22.736, 22.3, 0.63574, -0.0004, 0.00327, -0.77185,
 14:53:45.469,d3:c7:8d:a5:a9:b5, 2015-01-01 00:03:00.295, -0.012, -0.007, 0.997, 0, 0.305, 0, -0.313, 0.253, -101.041, -48.706, -9.408, -22.736, 22.3, 0.63574, -0.0004, 0.00327, -0.77185,
 14:53:45.469,d3:c7:8d:a5:a9:b5, 2015-01-01 00:03:00.295, -0.006, -0.007, 0.997, 0, 0.305, 0, -0.313, 0.253, -101.041, -48.706, -9.408, -22.736, 22.3, 0.63574, -0.0004, 0.00327, -0.77185,
 14:53:45.499,d3:c7:8d:a5:a9:b5, 2015-01-01 00:03:00.295, -0.006, -0.006, 1, 0.122, -0.366, 0, -0.313, 0.253, -101.041, -48.706, -9.408, -22.736, 22.3, 0.63574, -0.0004, 0.00327, -0.77185,
 14:53:45.499,d3:c7:8d:a5:a9:b5, 2015-01-01 00:03:00.295, -0.003, -0.006, 1, 0.122, -0.366, 0, -0.313, 0.253, -101.041, -48.706, -9.408, -22.736, 22.3, 0.63574, -0.0004, 0.00327, -0.77185,
 14:53:45.499,d3:c7:8d:a5:a9:b5, 2015-01-01 00:03:00.295, -0.003, -0.006, 0.999, 0.061, 0, 0, -0.313, 0.253, -101.041, -48.706, -9.408, -22.736, 22.3, 0.63574, -0.0004, 0.00327, -0.77185,
 14:53:45.499,d3:c7:8d:a5:a9:b5, 2015-01-01 00:03:00.295, -0.003, -0.006, 0.999, 0.061, 0, 0, -0.313, 0.253, -101.041, -48.706, -9.408, -22.736, 22.3, 0.63574, -0.0004, 0.00327, -0.77185,
 14:53:45.560,d3:c7:8d:a5:a9:b5, 2015-01-01 00:03:00.295, -0.003, -0.006, 1, 0.122, 0.183, 0, -0.313, 0.253, -101.041, -48.706, -9.408, -22.736, 22.3, 0.63574, -0.0004, 0.00327, -0.77185,
 14:53:45.560,d3:c7:8d:a5:a9:b5, 2015-01-01 00:03:00.295, -0.008, -0.006, 1, 0.122, 0.183, 0, -0.308, 0.253, -101.041, -48.706, -9.408, -22.736, 22.3, 0.63574, -0.0004, 0.00327, -0.77185,
 14:53:45.560,d3:c7:8d:a5:a9:b5, 2015-01-01 00:03:00.295, -0.008, -0.004, 0.998, 0.061, 0, 0, -0.308, 0.253, -101.036, -48.706, -9.408, -22.736, 22.3, 0.63574, -0.0004, 0.00327, -0.77185,
 14:53:45.560,d3:c7:8d:a5:a9:b5, 2015-01-01 00:03:00.295, -0.002, -0.004, 0.998, 0.061, 0, 0, -0.308, 0.253, -101.036, -48.706, -9.408, -22.736, 22.3, 0.63574, -0.0004, 0.00327, -0.77185,
 14:53:45.590,d3:c7:8d:a5:a9:b5, 2015-01-01 00:03:00.295, -0.002, -0.004, 1, -0.183, 0.122, 0, -0.308, 0.258, -101.036, -48.706, -9.408, -22.736, 22.3, 0.63574, -0.0004, 0.00327, -0.77185,
 14:53:45.590,d3:c7:8d:a5:a9:b5, 2015-01-01 00:03:00.295, -0.004, -0.004, 1, -0.183, 0.122, 0, -0.313, 0.258, -101.036, -48.706, -9.408, -22.736, 22.3, 0.63574, -0.0004, 0.00327, -0.77185,
 14:53:45.590,d3:c7:8d:a5:a9:b5, 2015-01-01 00:03:00.295, -0.004, -0.007, 0.999, -0.061, 0.305, 0, -0.313, 0.258, -101.036, -48.706, -9.408, -22.736, 22.3, 0.63574, -0.0004, 0.00327, -0.77185,
 14:53:45.590,d3:c7:8d:a5:a9:b5, 2015-01-01 00:03:00.295, -0.007, -0.007, 0.999, -0.061, 0.305, 0, -0.313, 0.264, -101.036, -48.706, -9.408, -22.736, 22.3, 0.63574, -0.0004, 0.00327, -0.77185,
 14:53:45.620,d3:c7:8d:a5:a9:b5, 2015-01-01 00:03:00.295, -0.007, -0.006, 1, 0, 0.305, 0, -0.313, 0.264, -101.036, -48.706, -9.408, -22.736, 22.3, 0.63574, -0.0004, 0.00327, -0.77185,
 14:53:45.620,d3:c7:8d:a5:a9:b5, 2015-01-01 00:03:00.295, -0.007, -0.006, 1, 0, 0.305, 0, -0.313, 0.269, -101.036, -48.706, -9.408, -22.736, 22.3, 0.63574, -0.0004, 0.00327, -0.77185,
 14:53:45.620,d3:c7:8d:a5:a9:b5, 2015-01-01 00:03:00.295, -0.007, -0.006, 0.999, 0.183, -0.122, 0, -0.313, 0.269, -101.036, -48.706, -9.408, -22.736, 22.3, 0.63574, -0.0004, 0.00327, -0.77185,
 14:53:45.620,d3:c7:8d:a5:a9:b5, 2015-01-01 00:03:00.295, -0.005, -0.006, 0.999, 0.183, -0.122, 0, -0.308, 0.269, -101.036, -48.706, -9.408, -22.736, 22.3, 0.63574, -0.0004, 0.00327, -0.77185,
 14:53:45.680,d3:c7:8d:a5:a9:b5, 2015-01-01 00:03:00.295, -0.005, -0.005, 1, 0.122, -0.183, 0, -0.308, 0.264, -101.036, -48.706, -9.408, -22.736, 22.3, 0.63574, -0.0004, 0.00327, -0.77185,
 14:53:45.680,d3:c7:8d:a5:a9:b5, 2015-01-01 00:03:00.295, -0.004, -0.005, 1, 0.122, -0.183, 0, -0.308, 0.264, -101.036, -48.706, -9.408, -22.736, 22.3, 0.63574, -0.0004, 0.00327, -0.77185,
 14:53:45.680,d3:c7:8d:a5:a9:b5, 2015-01-01 00:03:00.295, -0.004, -0.005, 1, 0.183, -0.122, 0, -0.308, 0.264, -101.036, -48.706, -9.408, -22.736, 22.3, 0.63574, -0.0004, 0.00327, -0.77185,
 14:53:45.680,d3:c7:8d:a5:a9:b5, 2015-01-01 00:03:00.295, -0.009, -0.005, 1, 0.183, -0.122, 0, -0.302, 0.264, -101.036, -48.706, -9.408, -22.736, 22.3, 0.63574, -0.0004, 0.00327, -0.77185,
 14:53:45.710,d3:c7:8d:a5:a9:b5, 2015-01-01 00:03:00.295, -0.009, -0.004, 0.997, 0, -0.488, 0, -0.302, 0.258, -101.036, -48.804, -9.310, -22.736, 22.3, 0.63574, -0.0004, 0.00327, -0.77185,
 14:53:45.710,d3:c7:8d:a5:a9:b5, 2015-01-01 00:03:00.295, 0, -0.004, 0.997, 0, -0.488, 0, -0.302, 0.253, -101.036, -48.804, -9.310, -22.736, 22.3, 0.63574, -0.0004, 0.00327, -0.77185,
 14:53:45.710,d3:c7:8d:a5:a9:b5, 2015-01-01 00:03:00.295, 0, -0.004, 1, -0.122, -0.488, 0, -0.308, 0.247, -101.03, -48.804, -9.310, -22.736, 22.3, 0.63574, -0.0004, 0.00327, -0.77185,
 14:53:45.710,d3:c7:8d:a5:a9:b5, 2015-01-01 00:03:00.295, -0.003, -0.004, 1, -0.122, -0.488, 0, -0.308, 0.242, -101.03, -48.804, -9.310, -22.736, 22.3, 0.63574, -0.0004, 0.00327, -0.77185,
 14:53:45.740,d3:c7:8d:a5:a9:b5, 2015-01-01 00:03:00.295, -0.003, -0.005, 1, -0.183, 0.061, 0, -0.308, 0.247, -101.03, -48.804, -9.310, -22.736, 22.3, 0.63574, -0.0004, 0.00327, -0.77185,
 14:53:45.740,d3:c7:8d:a5:a9:b5, 2015-01-01 00:03:00.295, -0.003, -0.005, 1, -0.183, 0.061, 0, -0.308, 0.247, -101.03, -48.804, -9.310, -22.736, 22.3, 0.63574, -0.0004, 0.00327, -0.77185,
 14:53:45.740,d3:c7:8d:a5:a9:b5, 2015-01-01 00:03:00.295, -0.003, -0.006, 0.999, 0, 0.305, 0, -0.308, 0.247, -101.03, -48.804, -9.310, -22.736, 22.3, 0.63574, -0.0004, 0.00327, -0.77185,
 14:53:45.740,d3:c7:8d:a5:a9:b5, 2015-01-01 00:03:00.295, -0.002, -0.006, 0.999, 0, 0.305, 0, -0.308, 0.253, -101.03, -48.804, -9.310, -22.736, 22.3, 0.63574, -0.0004, 0.00327, -0.77185,
 14:53:45.830,d3:c7:8d:a5:a9:b5, 2015-01-01 00:03:00.295, -0.002, -0.006, 1, 0.122, 0.549, 0, -0.308, 0.258, -101.03, -48.804, -9.310, -22.736, 22.3, 0.63583, -3E-05, 0.00351, -0.77176,
 14:53:45.830,d3:c7:8d:a5:a9:b5, 2015-01-01 00:03:00.295, -0.006, -0.006, 1, 0.122, 0.549, 0, -0.308, 0.264, -101.03, -48.804, -9.310, -22.736, 22.3, 0.63583, -3E-05, 0.00351, -0.77176,
 14:53:45.830,d3:c7:8d:a5:a9:b5, 2015-01-01 00:03:00.295, -0.006, -0.007, 0.998, 0.305, 0.732, 0, -0.308, 0.269, -101.03, -48.804, -9.310, -22.736, 22.3, 0.63583, -3E-05, 0.00351, -0.77176,
 14:53:45.830,d3:c7:8d:a5:a9:b5, 2015-01-01 00:03:00.295, -0.008, -0.007, 0.998, 0.305, 0.732, 0, -0.302, 0.275, -101.03, -48.804, -9.310, -22.736, 22.3, 0.63583, -3E-05, 0.00351, -0.77176,
 14:53:45.830,d3:c7:8d:a5:a9:b5, 2015-01-01 00:03:00.295, -0.008, -0.004, 0.998, 0.122, 0.488, 0, -0.302, 0.28, -101.03, -48.804, -9.310, -22.736, 22.3, 0.63583, -3E-05, 0.00351, -0.77176,
 14:53:45.830,d3:c7:8d:a5:a9:b5, 2015-01-01 00:03:00.295, -0.012, -0.004, 0.998, 0.122, 0.488, 0, -0.302, 0.286, -101.03, -48.804, -9.310, -22.736, 22.3, 0.63583, -3E-05, 0.00351, -0.77176,
 14:53:45.830,d3:c7:8d:a5:a9:b5, 2015-01-01 00:03:00.295, -0.012, -0.003, 0.999, -0.183, -0.244, 0, -0.302, 0.286, -101.03, -48.804, -9.310, -22.736, 22.3, 0.63583, -3E-05, 0.00351, -0.77176,
 14:53:45.830,d3:c7:8d:a5:a9:b5, 2015-01-01 00:03:00.295, -0.006, -0.003, 0.999, -0.183, -0.244, 0, -0.302, 0.28, -101.03, -48.804, -9.310, -22.736, 22.3, 0.63583, -3E-05, 0.00351, -0.77176,
 14:53:45.859,d3:c7:8d:a5:a9:b5, 2015-01-01 00:03:00.685, -0.006, -0.003, 1.001, -0.427, -0.977, 0, -0.308, 0.275, -101.03, -48.804, -9.310, -22.736, 22.3, 0.63583, -3E-05, 0.00351, -0.77176,
 14:53:45.859,d3:c7:8d:a5:a9:b5, 2015-01-01 00:03:00.685, -0.001, -0.003, 1.001, -0.427, -0.977, 0, -0.313, 0.264, -101.025, -48.804, -9.310, -22.736, 22.3, 0.63583, -3E-05, 0.00351, -0.77176,
 14:53:45.859,d3:c7:8d:a5:a9:b5, 2015-01-01 00:03:00.685, -0.001, -0.006, 1, -0.427, -0.793, 0, -0.319, 0.258, -101.025, -48.804, -9.310, -22.736, 22.3, 0.63583, -3E-05, 0.00351, -0.77176,
 14:53:45.859,d3:c7:8d:a5:a9:b5, 2015-01-01 00:03:00.685, 0.003, -0.006, 1, -0.427, -0.793, 0, -0.319, 0.247, -101.025, -48.804, -9.310, -22.736, 22.3, 0.63583, -3E-05, 0.00351, -0.77176,
 14:53:45.919,d3:c7:8d:a5:a9:b5, 2015-01-01 00:03:00.685, 0.003, -0.007, 0.998, -0.061, 0.305, 0, -0.319, 0.253, -101.025, -48.804, -9.310, -22.736, 22.3, 0.63583, -3E-05, 0.00351, -0.77176,
 14:53:45.919,d3:c7:8d:a5:a9:b5, 2015-01-01 00:03:00.685, -0.005, -0.007, 0.998, -0.061, 0.305, 0, -0.319, 0.253, -101.025, -48.804, -9.310, -22.736, 22.3, 0.63583, -3E-05, 0.00351, -0.77176,
 14:53:45.919,d3:c7:8d:a5:a9:b5, 2015-01-01 00:03:00.685, -0.005, -0.007, 1, 0.183, 0.916, 0, -0.319, 0.264, -101.025, -48.804, -9.310, -22.736, 22.3, 0.63583, -3E-05, 0.00351, -0.77176,
 14:53:45.919,d3:c7:8d:a5:a9:b5, 2015-01-01 00:03:00.685, -0.012, -0.007, 1, 0.183, 0.916, 0, -0.319, 0.275, -101.025, -48.804, -9.310, -22.736, 22.3, 0.63583, -3E-05, 0.00351, -0.77176,
 14:53:45.950,d3:c7:8d:a5:a9:b5, 2015-01-01 00:03:00.685, -0.012, -0.003, 0.999, 0.183, 0.244, 0, -0.319, 0.275, -101.025, -48.804, -9.310, -22.736, 22.3, 0.63583, -3E-05, 0.00351, -0.77176,
 14:53:45.950,d3:c7:8d:a5:a9:b5, 2015-01-01 00:03:00.685, -0.006, -0.003, 0.999, 0.183, 0.244, 0, -0.313, 0.28, -101.025, -48.804, -9.310, -22.736, 22.3, 0.63583, -3E-05, 0.00351, -0.77176,
 14:53:45.950,d3:c7:8d:a5:a9:b5, 2015-01-01 00:03:00.685, -0.006, -0.003, 1.001, 0, -0.427, 0, -0.313, 0.275, -101.025, -48.804, -9.310, -22.736, 22.3, 0.63583, -3E-05, 0.00351, -0.77176,
 14:53:45.950,d3:c7:8d:a5:a9:b5, 2015-01-01 00:03:00.685, -0.005, -0.003, 1.001, 0, -0.427, 0, -0.313, 0.269, -101.025, -48.804, -9.310, -22.736, 22.3, 0.63583, -3E-05, 0.00351, -0.77176,
 14:53:45.979,d3:c7:8d:a5:a9:b5, 2015-01-01 00:03:00.685, -0.005, -0.006, 0.998, -0.061, -0.427, 0, -0.313, 0.264, -101.025, -48.804, -9.310, -22.736, 22.3, 0.63583, -3E-05, 0.00351, -0.77176,
 14:53:45.979,d3:c7:8d:a5:a9:b5, 2015-01-01 00:03:00.685, -0.004, -0.006, 0.998, -0.061, -0.427, 0, -0.313, 0.264, -101.025, -48.804, -9.310, -22.736, 22.3, 0.63583, -3E-05, 0.00351, -0.77176,
 14:53:45.979,d3:c7:8d:a5:a9:b5, 2015-01-01 00:03:00.685, -0.004, -0.006, 0.999, 0, -0.366, 0, -0.313, 0.258, -101.019, -48.804, -9.310, -22.736, 22.3, 0.63583, -3E-05, 0.00351, -0.77176,
 14:53:45.979,d3:c7:8d:a5:a9:b5, 2015-01-01 00:03:00.685, -0.002, -0.006, 0.999, 0, -0.366, 0, -0.313, 0.253, -101.019, -48.804, -9.310, -22.736, 22.3, 0.63583, -3E-05, 0.00351, -0.77176,
 14:53:46.069,d3:c7:8d:a5:a9:b5, 2015-01-01 00:03:00.685, -0.002, -0.004, 0.999, -0.061, -0.061, 0, -0.313, 0.253, -101.019, -48.804, -9.310, -22.736, 22.3, 0.63583, -3E-05, 0.00351, -0.77176,
 14:53:46.069,d3:c7:8d:a5:a9:b5, 2015-01-01 00:03:00.685, -0.003, -0.004, 0.999, -0.061, -0.061, 0, -0.319, 0.253, -101.019, -48.804, -9.310, -22.736, 22.3, 0.63583, -3E-05, 0.00351, -0.77176,
 14:53:46.069,d3:c7:8d:a5:a9:b5, 2015-01-01 00:03:00.685, -0.003, -0.004, 1, -0.244, 0.183, 0, -0.319, 0.258, -101.019, -48.804, -9.310, -22.736, 22.3, 0.63583, -3E-05, 0.00351, -0.77176,
 14:53:46.069,d3:c7:8d:a5:a9:b5, 2015-01-01 00:03:00.685, -0.005, -0.004, 1, -0.244, 0.183, 0, -0.319, 0.258, -101.019, -48.804, -9.310, -22.736, 22.3, 0.63583, -3E-05, 0.00351, -0.77176,
 14:53:46.069,d3:c7:8d:a5:a9:b5, 2015-01-01 00:03:00.685, -0.006, -0.005, 1, -0.183, 0.305, 0, -0.324, 0.264, -101.019, -48.804, -9.310, -22.736, 22.3, 0.63583, -3E-05, 0.00351, -0.77176,
 14:53:46.069,d3:c7:8d:a5:a9:b5, 2015-01-01 00:03:00.685, -0.006, -0.007, 1, -0.122, 0, 0, -0.324, 0.264, -101.019, -48.804, -9.310, -22.736, 22.3, 0.63583, -3E-05, 0.00351, -0.77176,
 14:53:46.070,d3:c7:8d:a5:a9:b5, 2015-01-01 00:03:00.685, -0.003, -0.007, 1, -0.122, 0, 0, -0.324, 0.264, -101.019, -48.804, -9.310, -22.736, 22.3, 0.63583, -3E-05, 0.00351, -0.77176,
 14:53:46.070,d3:c7:8d:a5:a9:b5, 2015-01-01 00:03:00.685, -0.003, -0.007, 0.999, 0.061, 0.061, 0, -0.324, 0.264, -101.019, -48.804, -9.310, -22.736, 22.3, 0.63583, -3E-05, 0.00351, -0.77176,
 14:53:46.100,d3:c7:8d:a5:a9:b5, 2015-01-01 00:03:00.685, -0.002, -0.007, 0.999, 0.061, 0.061, 0, -0.324, 0.264, -101.019, -48.706, -9.408, -22.736, 22.3, 0.63583, -3E-05, 0.00351, -0.77176,
 14:53:46.100,d3:c7:8d:a5:a9:b5, 2015-01-01 00:03:00.685, -0.002, -0.005, 1, 0.061, 0.549, 0, -0.324, 0.269, -101.019, -48.706, -9.408, -22.736, 22.3, 0.63583, -3E-05, 0.00351, -0.77176,
 14:53:46.100,d3:c7:8d:a5:a9:b5, 2015-01-01 00:03:00.685, -0.009, -0.005, 1, 0.061, 0.549, 0, -0.324, 0.275, -101.019, -48.706, -9.408, -22.736, 22.3, 0.63583, -3E-05, 0.00351, -0.77176,
 14:53:46.100,d3:c7:8d:a5:a9:b5, 2015-01-01 00:03:00.685, -0.009, -0.006, 1, 0.183, 0.549, 0, -0.324, 0.28, -101.019, -48.706, -9.408, -22.736, 22.3, 0.63583, -3E-05, 0.00351, -0.77176,
 14:53:46.160,d3:c7:8d:a5:a9:b5, 2015-01-01 00:03:00.685, -0.011, -0.006, 1, 0.183, 0.549, 0, -0.319, 0.286, -101.019, -48.706, -9.408, -22.736, 22.3, 0.63583, -3E-05, 0.00351, -0.77176,
 14:53:46.160,d3:c7:8d:a5:a9:b5, 2015-01-01 00:03:00.685, -0.011, -0.006, 1, 0.305, -0.305, 0, -0.319, 0.286, -101.019, -48.706, -9.408, -22.736, 22.3, 0.63583, -3E-05, 0.00351, -0.77176,
 14:53:46.160,d3:c7:8d:a5:a9:b5, 2015-01-01 00:03:00.685, -0.004, -0.006, 1, 0.305, -0.305, 0, -0.313, 0.28, -101.025, -48.706, -9.408, -22.736, 22.3, 0.63583, -3E-05, 0.00351, -0.77176,
 14:53:46.160,d3:c7:8d:a5:a9:b5, 2015-01-01 00:03:00.685, -0.004, -0.005, 0.999, 0.305, -0.427, 0, -0.313, 0.28, -101.025, -48.706, -9.408, -22.736, 22.3, 0.63583, -3E-05, 0.00351, -0.77176,
 14:53:46.189,d3:c7:8d:a5:a9:b5, 2015-01-01 00:03:00.685, -0.007, -0.005, 0.999, 0.305, -0.427, 0, -0.308, 0.275, -101.025, -48.706, -9.408, -22.736, 22.3, 0.63586, 0.00015, 0.00375, -0.7717,
 14:53:46.189,d3:c7:8d:a5:a9:b5, 2015-01-01 00:03:00.685, -0.007, -0.005, 1, 0.061, -0.183, 0, -0.308, 0.275, -101.025, -48.706, -9.408, -22.736, 22.3, 0.63586, 0.00015, 0.00375, -0.7717,
 14:53:46.189,d3:c7:8d:a5:a9:b5, 2015-01-01 00:03:00.685, -0.006, -0.005, 1, 0.061, -0.183, 0, -0.308, 0.269, -101.025, -48.706, -9.408, -22.736, 22.3, 0.63586, 0.00015, 0.00375, -0.7717,
 14:53:46.189,d3:c7:8d:a5:a9:b5, 2015-01-01 00:03:00.685, -0.006, -0.004, 0.998, 0, -0.488, 0, -0.308, 0.269, -101.025, -48.706, -9.408, -22.736, 22.3, 0.63586, 0.00015, 0.00375, -0.7717,
 14:53:46.220,d3:c7:8d:a5:a9:b5, 2015-01-01 00:03:00.685, 0, -0.004, 0.998, 0, -0.488, 0, -0.308, 0.264, -101.025, -48.706, -9.408, -22.736, 22.3, 0.63586, 0.00015, 0.00375, -0.7717,
 14:53:46.220,d3:c7:8d:a5:a9:b5, 2015-01-01 00:03:00.685, 0, -0.004, 1.001, -0.183, -0.305, 0, -0.308, 0.258, -101.019, -48.706, -9.408, -22.736, 22.3, 0.63586, 0.00015, 0.00375, -0.7717,
 14:53:46.220,d3:c7:8d:a5:a9:b5, 2015-01-01 00:03:00.685, 0, -0.004, 1.001, -0.183, -0.305, 0, -0.308, 0.258, -101.019, -48.706, -9.408, -22.736, 22.3, 0.63586, 0.00015, 0.00375, -0.7717,
 14:53:46.220,d3:c7:8d:a5:a9:b5, 2015-01-01 00:03:00.685, 0, -0.005, 0.997, -0.061, 0.549, 0, -0.313, 0.258, -101.019, -48.706, -9.408, -22.736, 22.3, 0.63586, 0.00015, 0.00375, -0.7717,
 14:53:46.280,d3:c7:8d:a5:a9:b5, 2015-01-01 00:03:01.100, -0.005, -0.005, 0.997, -0.061, 0.549, 0, -0.313, 0.264, -101.019, -48.706, -9.408, -22.736, 22.3, 0.63586, 0.00015, 0.00375, -0.7717,
 14:53:46.280,d3:c7:8d:a5:a9:b5, 2015-01-01 00:03:01.100, -0.005, -0.007, 0.999, -0.061, 0.793, 0, -0.313, 0.269, -101.019, -48.706, -9.408, -22.736, 22.3, 0.63586, 0.00015, 0.00375, -0.7717,
 14:53:46.280,d3:c7:8d:a5:a9:b5, 2015-01-01 00:03:01.100, -0.008, -0.007, 0.999, -0.061, 0.793, 0, -0.313, 0.28, -101.019, -48.706, -9.408, -22.736, 22.3, 0.63586, 0.00015, 0.00375, -0.7717,
 14:53:46.280,d3:c7:8d:a5:a9:b5, 2015-01-01 00:03:01.100, -0.008, -0.007, 1, 0.183, 0.671, 0, -0.313, 0.286, -101.019, -48.706, -9.408, -22.736, 22.3, 0.63586, 0.00015, 0.00375, -0.7717,
 14:53:46.310,d3:c7:8d:a5:a9:b5, 2015-01-01 00:03:01.100, -0.007, -0.007, 1, 0.183, 0.671, 0, -0.313, 0.291, -101.019, -48.706, -9.408, -22.736, 22.3, 0.63586, 0.00015, 0.00375, -0.7717,
 14:53:46.310,d3:c7:8d:a5:a9:b5, 2015-01-01 00:03:01.100, -0.007, -0.003, 0.999, 0.061, 0.244, 0, -0.308, 0.297, -101.019, -48.706, -9.408, -22.736, 22.3, 0.63586, 0.00015, 0.00375, -0.7717,
 14:53:46.310,d3:c7:8d:a5:a9:b5, 2015-01-01 00:03:01.100, -0.005, -0.003, 0.999, 0.061, 0.244, 0, -0.308, 0.297, -101.019, -48.706, -9.408, -22.736, 22.3, 0.63586, 0.00015, 0.00375, -0.7717,
 14:53:46.310,d3:c7:8d:a5:a9:b5, 2015-01-01 00:03:01.100, -0.005, -0.005, 1, 0.061, 0.183, 0, -0.308, 0.302, -101.019, -48.706, -9.408, -22.736, 22.3, 0.63586, 0.00015, 0.00375, -0.7717,
 14:53:46.339,d3:c7:8d:a5:a9:b5, 2015-01-01 00:03:01.100, -0.009, -0.005, 1, 0.061, 0.183, 0, -0.308, 0.302, -101.019, -48.706, -9.408, -22.736, 22.3, 0.63586, 0.00015, 0.00375, -0.7717,
 14:53:46.339,d3:c7:8d:a5:a9:b5, 2015-01-01 00:03:01.100, -0.009, -0.005, 0.998, 0.061, 0.061, 0, -0.308, 0.302, -101.019, -48.706, -9.408, -22.736, 22.3, 0.63586, 0.00015, 0.00375, -0.7717,
 14:53:46.339,d3:c7:8d:a5:a9:b5, 2015-01-01 00:03:01.100, -0.006, -0.005, 0.998, 0.061, 0.061, 0, -0.308, 0.308, -101.019, -48.706, -9.408, -22.736, 22.3, 0.63586, 0.00015, 0.00375, -0.7717,
 14:53:46.339,d3:c7:8d:a5:a9:b5, 2015-01-01 00:03:01.100, -0.006, -0.005, 0.999, 0, 0, 0, -0.308, 0.308, -101.019, -48.706, -9.408, -22.736, 22.3, 0.63586, 0.00015, 0.00375, -0.7717,
 14:53:46.400,d3:c7:8d:a5:a9:b5, 2015-01-01 00:03:01.100, -0.006, -0.005, 0.999, 0, 0, 0, -0.308, 0.308, -101.019, -48.706, -9.408, -22.736, 22.3, 0.63586, 0.00015, 0.00375, -0.7717,
 14:53:46.400,d3:c7:8d:a5:a9:b5, 2015-01-01 00:03:01.100, -0.006, -0.005, 0.999, -0.061, 0, 0, -0.308, 0.308, -101.019, -48.706, -9.408, -22.736, 22.3, 0.63586, 0.00015, 0.00375, -0.7717,
 14:53:46.400,d3:c7:8d:a5:a9:b5, 2015-01-01 00:03:01.100, -0.009, -0.005, 0.999, -0.061, 0, 0, -0.308, 0.308, -101.019, -48.706, -9.408, -22.736, 22.3, 0.63586, 0.00015, 0.00375, -0.7717,
 14:53:46.400,d3:c7:8d:a5:a9:b5, 2015-01-01 00:03:01.100, -0.009, -0.006, 0.999, 0, -0.427, 0, -0.308, 0.308, -101.019, -48.706, -9.408, -22.736, 22.3, 0.63586, 0.00015, 0.00375, -0.7717,
 14:53:46.429,d3:c7:8d:a5:a9:b5, 2015-01-01 00:03:01.100, -0.004, -0.006, 0.999, 0, -0.427, 0, -0.308, 0.302, -101.019, -48.706, -9.408, -22.736, 22.3, 0.63586, 0.00015, 0.00375, -0.7717,
 14:53:46.429,d3:c7:8d:a5:a9:b5, 2015-01-01 00:03:01.100, -0.004, -0.005, 0.999, 0, -0.732, 0, -0.308, 0.297, -101.019, -48.706, -9.408, -22.736, 22.3, 0.63586, 0.00015, 0.00375, -0.7717,
 14:53:46.429,d3:c7:8d:a5:a9:b5, 2015-01-01 00:03:01.100, 0.001, -0.005, 0.999, 0, -0.732, 0, -0.308, 0.291, -101.019, -48.706, -9.408, -22.736, 22.3, 0.63586, 0.00015, 0.00375, -0.7717,
 14:53:46.429,d3:c7:8d:a5:a9:b5, 2015-01-01 00:03:01.100, 0.001, -0.005, 0.999, 0, 0, 0, -0.308, 0.286, -101.019, -48.706, -9.408, -22.736, 22.3, 0.63586, 0.00015, 0.00375, -0.7717,
 14:53:46.459,d3:c7:8d:a5:a9:b5, 2015-01-01 00:03:01.100, -0.001, -0.005, 0.999, 0, 0, 0, -0.308, 0.286, -101.019, -48.706, -9.408, -22.736, 22.3, 0.63586, 0.00015, 0.00375, -0.7717,
 14:53:46.459,d3:c7:8d:a5:a9:b5, 2015-01-01 00:03:01.100, -0.001, -0.005, 1, 0.061, 0.916, 0, -0.308, 0.291, -101.019, -48.706, -9.408, -22.736, 22.3, 0.63586, 0.00015, 0.00375, -0.7717,
 14:53:46.459,d3:c7:8d:a5:a9:b5, 2015-01-01 00:03:01.100, -0.01, -0.005, 1, 0.061, 0.916, 0, -0.308, 0.297, -101.019, -48.706, -9.408, -22.736, 22.3, 0.63586, 0.00015, 0.00375, -0.7717,
 14:53:46.459,d3:c7:8d:a5:a9:b5, 2015-01-01 00:03:01.100, -0.01, -0.005, 1, 0.061, 0.671, 0, -0.308, 0.308, -101.019, -48.706, -9.408, -22.736, 22.3, 0.63586, 0.00015, 0.00375, -0.7717,
 14:53:46.519,d3:c7:8d:a5:a9:b5, 2015-01-01 00:03:01.100, -0.012, -0.005, 1, 0.061, 0.671, 0, -0.308, 0.313, -101.019, -48.706, -9.408, -22.736, 22.3, 0.63586, 0.00015, 0.00375, -0.7717,
 14:53:46.519,d3:c7:8d:a5:a9:b5, 2015-01-01 00:03:01.100, -0.012, -0.006, 0.998, 0.122, -0.122, 0, -0.302, 0.313, -101.019, -48.706, -9.408, -22.736, 22.3, 0.63586, 0.00015, 0.00375, -0.7717,
 14:53:46.519,d3:c7:8d:a5:a9:b5, 2015-01-01 00:03:01.100, -0.004, -0.006, 0.998, 0.122, -0.122, 0, -0.302, 0.313, -101.019, -48.706, -9.408, -22.736, 22.3, 0.63586, 0.00015, 0.00375, -0.7717,
 14:53:46.519,d3:c7:8d:a5:a9:b5, 2015-01-01 00:03:01.100, -0.004, -0.005, 0.999, 0.061, -0.244, 0, -0.302, 0.308, -101.019, -48.706, -9.408, -22.736, 22.3, 0.63586, 0.00015, 0.00375, -0.7717,
 14:53:46.549,d3:c7:8d:a5:a9:b5, 2015-01-01 00:03:01.100, -0.005, -0.005, 0.999, 0.061, -0.244, 0, -0.302, 0.308, -101.019, -48.706, -9.408, -22.736, 22.3, 0.63589, 0.0004, 0.00381, -0.7717,
 14:53:46.549,d3:c7:8d:a5:a9:b5, 2015-01-01 00:03:01.100, -0.005, -0.003, 1, 0, 0.183, 0, -0.302, 0.308, -101.019, -48.706, -9.408, -22.736, 22.3, 0.63589, 0.0004, 0.00381, -0.7717,
 14:53:46.549,d3:c7:8d:a5:a9:b5, 2015-01-01 00:03:01.100, -0.007, -0.003, 1, 0, 0.183, 0, -0.302, 0.313, -101.025, -48.706, -9.408, -22.736, 22.3, 0.63589, 0.0004, 0.00381, -0.7717,
 14:53:46.549,d3:c7:8d:a5:a9:b5, 2015-01-01 00:03:01.100, -0.007, -0.004, 1, -0.427, 0.122, 0, -0.308, 0.313, -101.025, -48.706, -9.408, -22.736, 22.3, 0.63589, 0.0004, 0.00381, -0.7717,
 14:53:46.579,d3:c7:8d:a5:a9:b5, 2015-01-01 00:03:01.100, -0.003, -0.004, 1, -0.427, 0.122, 0, -0.313, 0.313, -101.025, -48.706, -9.408, -22.736, 22.3, 0.63589, 0.0004, 0.00381, -0.7717,
 14:53:46.579,d3:c7:8d:a5:a9:b5, 2015-01-01 00:03:01.100, -0.003, -0.006, 0.999, -0.366, 0.061, 0, -0.313, 0.313, -101.025, -48.706, -9.408, -22.736, 22.3, 0.63589, 0.0004, 0.00381, -0.7717,
 14:53:46.579,d3:c7:8d:a5:a9:b5, 2015-01-01 00:03:01.100, -0.003, -0.006, 0.999, -0.366, 0.061, 0, -0.319, 0.313, -101.025, -48.706, -9.408, -22.736, 22.3, 0.63589, 0.0004, 0.00381, -0.7717,
 14:53:46.579,d3:c7:8d:a5:a9:b5, 2015-01-01 00:03:01.100, -0.003, -0.006, 0.999, -0.122, 0.366, 0, -0.319, 0.319, -101.025, -48.706, -9.408, -22.736, 22.3, 0.63589, 0.0004, 0.00381, -0.7717,
 14:53:46.640,d3:c7:8d:a5:a9:b5, 2015-01-01 00:03:01.460, -0.005, -0.006, 0.999, -0.122, 0.366, 0, -0.319, 0.324, -101.025, -48.706, -9.408, -22.736, 22.3, 0.63589, 0.0004, 0.00381, -0.7717,
 14:53:46.640,d3:c7:8d:a5:a9:b5, 2015-01-01 00:03:01.460, -0.005, -0.005, 1, 0.061, 0.793, 0, -0.319, 0.33, -101.025, -48.706, -9.408, -22.736, 22.3, 0.63589, 0.0004, 0.00381, -0.7717,
 14:53:46.640,d3:c7:8d:a5:a9:b5, 2015-01-01 00:03:01.460, -0.013, -0.005, 1, 0.061, 0.793, 0, -0.319, 0.335, -101.025, -48.706, -9.408, -22.736, 22.3, 0.63589, 0.0004, 0.00381, -0.7717,
 14:53:46.640,d3:c7:8d:a5:a9:b5, 2015-01-01 00:03:01.460, -0.013, -0.005, 0.998, -0.122, 0.488, 0, -0.319, 0.341, -101.025, -48.706, -9.408, -22.736, 22.3, 0.63589, 0.0004, 0.00381, -0.7717,
 14:53:46.670,d3:c7:8d:a5:a9:b5, 2015-01-01 00:03:01.460, -0.011, -0.005, 0.998, -0.122, 0.488, 0, -0.319, 0.346, -101.025, -48.706, -9.408, -22.736, 22.3, 0.63589, 0.0004, 0.00381, -0.7717,
 14:53:46.670,d3:c7:8d:a5:a9:b5, 2015-01-01 00:03:01.460, -0.011, -0.006, 0.999, -0.305, -0.549, 0, -0.324, 0.341, -101.025, -48.706, -9.408, -22.736, 22.3, 0.63589, 0.0004, 0.00381, -0.7717,
 14:53:46.670,d3:c7:8d:a5:a9:b5, 2015-01-01 00:03:01.460, -0.005, -0.006, 0.999, -0.305, -0.549, 0, -0.33, 0.335, -101.025, -48.706, -9.408, -22.736, 22.3, 0.63589, 0.0004, 0.00381, -0.7717,
 14:53:46.670,d3:c7:8d:a5:a9:b5, 2015-01-01 00:03:01.460, -0.005, -0.005, 1, -0.183, -0.671, 0, -0.33, 0.33, -101.025, -48.706, -9.408, -22.736, 22.3, 0.63589, 0.0004, 0.00381, -0.7717,
 14:53:46.699,d3:c7:8d:a5:a9:b5, 2015-01-01 00:03:01.460, -0.004, -0.005, 1, -0.183, -0.671, 0, -0.33, 0.324, -101.025, -48.706, -9.408, -22.736, 22.3, 0.63589, 0.0004, 0.00381, -0.7717,
 14:53:46.699,d3:c7:8d:a5:a9:b5, 2015-01-01 00:03:01.460, -0.004, -0.005, 1, -0.122, -0.244, 0, -0.33, 0.324, -101.025, -48.706, -9.408, -22.736, 22.3, 0.63589, 0.0004, 0.00381, -0.7717,
 14:53:46.699,d3:c7:8d:a5:a9:b5, 2015-01-01 00:03:01.460, -0.004, -0.005, 1, -0.122, -0.244, 0, -0.335, 0.319, -101.025, -48.706, -9.408, -22.736, 22.3, 0.63589, 0.0004, 0.00381, -0.7717,
 14:53:46.699,d3:c7:8d:a5:a9:b5, 2015-01-01 00:03:01.460, -0.004, -0.005, 0.998, -0.183, 0, 0, -0.335, 0.319, -101.025, -48.706, -9.408, -22.736, 22.3, 0.63589, 0.0004, 0.00381, -0.7717,
 14:53:46.760,d3:c7:8d:a5:a9:b5, 2015-01-01 00:03:01.460, 0, -0.005, 0.998, -0.183, 0, 0, -0.335, 0.319, -101.025, -48.706, -9.408, -22.736, 22.3, 0.63589, 0.0004, 0.00381, -0.7717,
 14:53:46.760,d3:c7:8d:a5:a9:b5, 2015-01-01 00:03:01.460, 0, -0.001, 0.998, -0.977, 1.038, 0, -0.346, 0.33, -101.025, -48.706, -9.408, -22.736, 22.3, 0.63589, 0.0004, 0.00381, -0.7717,
 14:53:46.760,d3:c7:8d:a5:a9:b5, 2015-01-01 00:03:01.460, -0.008, -0.001, 0.998, -0.977, 1.038, 0, -0.357, 0.341, -101.025, -48.706, -9.408, -22.736, 22.3, 0.63589, 0.0004, 0.00381, -0.7717,
 14:53:46.760,d3:c7:8d:a5:a9:b5, 2015-01-01 00:03:01.460, -0.008, -0.008, 0.997, -0.916, 1.526, 0, -0.363, 0.357, -101.025, -48.706, -9.408, -22.736, 22.3, 0.63589, 0.0004, 0.00381, -0.7717,
 14:53:46.789,d3:c7:8d:a5:a9:b5, 2015-01-01 00:03:01.460, -0.006, -0.008, 0.997, -0.916, 1.526, 0, -0.374, 0.374, -101.025, -48.706, -9.408, -22.736, 22.3, 0.63589, 0.0004, 0.00381, -0.7717,
 14:53:46.789,d3:c7:8d:a5:a9:b5, 2015-01-01 00:03:01.460, -0.006, -0.009, 1.003, -0.122, 0.977, 0, -0.374, 0.379, -101.025, -48.706, -9.408, -22.736, 22.3, 0.63589, 0.0004, 0.00381, -0.7717,
 14:53:46.789,d3:c7:8d:a5:a9:b5, 2015-01-01 00:03:01.460, -0.023, -0.009, 1.003, -0.122, 0.977, 0, -0.374, 0.39, -101.025, -48.706, -9.408, -22.736, 22.3, 0.63589, 0.0004, 0.00381, -0.7717,
 14:53:46.789,d3:c7:8d:a5:a9:b5, 2015-01-01 00:03:01.460, -0.023, -0.005, 0.999, 0.061, -0.488, 0, -0.374, 0.385, -101.025, -48.706, -9.408, -22.736, 22.3, 0.63589, 0.0004, 0.00381, -0.7717,
 14:53:46.849,d3:c7:8d:a5:a9:b5, 2015-01-01 00:03:01.460, 0, -0.005, 0.999, 0.061, -0.488, 0, -0.374, 0.379, -101.025, -48.706, -9.310, -22.736, 22.3, 0.63589, 0.0004, 0.00381, -0.7717,
 14:53:46.849,d3:c7:8d:a5:a9:b5, 2015-01-01 00:03:01.460, 0, -0.007, 0.998, -0.244, -1.16, 0, -0.374, 0.368, -101.025, -48.706, -9.310, -22.736, 22.3, 0.63589, 0.0004, 0.00381, -0.7717,
 14:53:46.849,d3:c7:8d:a5:a9:b5, 2015-01-01 00:03:01.460, -0.003, -0.007, 0.998, -0.244, -1.16, 0, -0.379, 0.357, -101.025, -48.706, -9.310, -22.736, 22.3, 0.63589, 0.0004, 0.00381, -0.7717,
 14:53:46.849,d3:c7:8d:a5:a9:b5, 2015-01-01 00:03:01.460, -0.003, -0.007, 1, -0.122, -0.061, 0, -0.379, 0.357, -101.025, -48.706, -9.310, -22.736, 22.3, 0.63589, 0.0004, 0.00381, -0.7717,
 14:53:46.879,d3:c7:8d:a5:a9:b5, 2015-01-01 00:03:01.460, -0.008, -0.007, 1, -0.122, -0.061, 0, -0.379, 0.357, -101.025, -48.706, -9.310, -22.736, 22.3, 0.63586, 0.00031, 0.00455, -0.77173,
 14:53:46.879,d3:c7:8d:a5:a9:b5, 2015-01-01 00:03:01.460, -0.008, -0.007, 0.997, 0.305, 0.183, 0, -0.379, 0.357, -101.025, -48.706, -9.310, -22.736, 22.3, 0.63586, 0.00031, 0.00455, -0.77173,
 14:53:46.879,d3:c7:8d:a5:a9:b5, 2015-01-01 00:03:01.460, -0.01, -0.007, 0.997, 0.305, 0.183, 0, -0.374, 0.363, -101.025, -48.706, -9.310, -22.736, 22.3, 0.63586, 0.00031, 0.00455, -0.77173,
 14:53:46.879,d3:c7:8d:a5:a9:b5, 2015-01-01 00:03:01.460, -0.01, -0.005, 0.999, 0.061, -0.366, 0, -0.374, 0.357, -101.025, -48.706, -9.310, -22.736, 22.3, 0.63586, 0.00031, 0.00455, -0.77173,
 14:53:46.911,d3:c7:8d:a5:a9:b5, 2015-01-01 00:03:01.460, -0.002, -0.005, 0.999, 0.061, -0.366, 0, -0.374, 0.357, -101.025, -48.706, -9.310, -22.736, 22.3, 0.63586, 0.00031, 0.00455, -0.77173,
 14:53:46.911,d3:c7:8d:a5:a9:b5, 2015-01-01 00:03:01.460, -0.002, -0.006, 0.999, 0.061, -0.183, 0, -0.374, 0.352, -101.025, -48.706, -9.310, -22.736, 22.3, 0.63586, 0.00031, 0.00455, -0.77173,
 14:53:46.911,d3:c7:8d:a5:a9:b5, 2015-01-01 00:03:01.460, -0.004, -0.006, 0.999, 0.061, -0.183, 0, -0.374, 0.352, -101.025, -48.706, -9.310, -22.736, 22.3, 0.63586, 0.00031, 0.00455, -0.77173,
 14:53:46.911,d3:c7:8d:a5:a9:b5, 2015-01-01 00:03:01.460, -0.004, -0.006, 0.999, -0.122, 0.366, 0, -0.374, 0.357, -101.025, -48.706, -9.310, -22.736, 22.3, 0.63586, 0.00031, 0.00455, -0.77173,
 14:53:46.970,d3:c7:8d:a5:a9:b5, 2015-01-01 00:03:01.785, -0.01, -0.006, 0.999, -0.122, 0.366, 0, -0.374, 0.357, -101.025, -48.706, -9.310, -22.736, 22.3, 0.63586, 0.00031, 0.00455, -0.77173,
 14:53:46.970,d3:c7:8d:a5:a9:b5, 2015-01-01 00:03:01.785, -0.012, -0.007, 1, -0.061, 0.366, 0, -0.374, 0.363, -101.025, -48.706, -9.310, -22.736, 22.3, 0.63586, 0.00031, 0.00455, -0.77173,
 14:53:46.971,d3:c7:8d:a5:a9:b5, 2015-01-01 00:03:01.785, -0.012, -0.007, 0.998, -0.183, -0.427, 0, -0.374, 0.363, -101.025, -48.706, -9.310, -22.736, 22.3, 0.63586, 0.00031, 0.00455, -0.77173,
 14:53:46.971,d3:c7:8d:a5:a9:b5, 2015-01-01 00:03:01.785, -0.004, -0.007, 0.998, -0.183, -0.427, 0, -0.379, 0.357, -101.025, -48.706, -9.310, -22.736, 22.3, 0.63586, 0.00031, 0.00455, -0.77173,
 14:53:46.999,d3:c7:8d:a5:a9:b5, 2015-01-01 00:03:01.785, -0.004, -0.008, 1, -0.305, -0.61, 0, -0.379, 0.357, -101.025, -48.706, -9.310, -22.736, 22.3, 0.63586, 0.00031, 0.00455, -0.77173,
 14:53:46.999,d3:c7:8d:a5:a9:b5, 2015-01-01 00:03:01.785, 0, -0.008, 1, -0.305, -0.61, 0, -0.385, 0.352, -101.025, -48.706, -9.310, -22.736, 22.3, 0.63586, 0.00031, 0.00455, -0.77173,
 14:53:46.999,d3:c7:8d:a5:a9:b5, 2015-01-01 00:03:01.785, 0, -0.007, 0.998, -0.244, 0.183, 0, -0.385, 0.346, -101.025, -48.706, -9.310, -22.736, 22.3, 0.63586, 0.00031, 0.00455, -0.77173,
 14:53:46.999,d3:c7:8d:a5:a9:b5, 2015-01-01 00:03:01.785, -0.001, -0.007, 0.998, -0.244, 0.183, 0, -0.39, 0.352, -101.025, -48.706, -9.310, -22.736, 22.3, 0.63586, 0.00031, 0.00455, -0.77173,
 14:53:47.029,d3:c7:8d:a5:a9:b5, 2015-01-01 00:03:01.785, -0.001, -0.005, 0.998, -0.305, 1.465, 0, -0.39, 0.357, -101.025, -48.706, -9.310, -22.736, 22.3, 0.63586, 0.00031, 0.00455, -0.77173,
 14:53:47.029,d3:c7:8d:a5:a9:b5, 2015-01-01 00:03:01.785, -0.006, -0.005, 0.998, -0.305, 1.465, 0, -0.396, 0.374, -101.025, -48.706, -9.310, -22.736, 22.3, 0.63586, 0.00031, 0.00455, -0.77173,
 14:53:47.029,d3:c7:8d:a5:a9:b5, 2015-01-01 00:03:01.785, -0.006, -0.006, 1.001, -1.038, 3.723, 0, -0.401, 0.396, -101.025, -48.706, -9.310, -22.736, 22.3, 0.63586, 0.00031, 0.00455, -0.77173,
 14:53:47.029,d3:c7:8d:a5:a9:b5, 2015-01-01 00:03:01.785, -0.019, -0.006, 1.001, -1.038, 3.723, 0, -0.412, 0.434, -101.025, -48.706, -9.310, -22.736, 22.3, 0.63586, 0.00031, 0.00455, -0.77173,
 14:53:47.089,d3:c7:8d:a5:a9:b5, 2015-01-01 00:03:01.785, -0.019, -0.009, 1, -0.061, 1.038, 0, -0.417, 0.456, -101.025, -48.706, -9.310, -22.736, 22.3, 0.63586, 0.00031, 0.00455, -0.77173,
 14:53:47.089,d3:c7:8d:a5:a9:b5, 2015-01-01 00:03:01.785, -0.019, -0.009, 1, -0.061, 1.038, 0, -0.417, 0.467, -101.025, -48.706, -9.310, -22.736, 22.3, 0.63586, 0.00031, 0.00455, -0.77173,
 14:53:47.089,d3:c7:8d:a5:a9:b5, 2015-01-01 00:03:01.785, -0.019, -0.008, 0.997, -0.122, -0.854, 0, -0.417, 0.467, -101.025, -48.706, -9.310, -22.736, 22.3, 0.63586, 0.00031, 0.00455, -0.77173,
 14:53:47.089,d3:c7:8d:a5:a9:b5, 2015-01-01 00:03:01.785, -0.002, -0.008, 0.997, -0.122, -0.854, 0, -0.417, 0.456, -101.025, -48.706, -9.310, -22.736, 22.3, 0.63586, 0.00031, 0.00455, -0.77173,
 14:53:47.120,d3:c7:8d:a5:a9:b5, 2015-01-01 00:03:01.785, -0.002, -0.006, 1, -0.305, -1.038, 0, -0.423, 0.45, -101.025, -48.706, -9.310, -22.736, 22.3, 0.63586, 0.00031, 0.00455, -0.77173,
 14:53:47.120,d3:c7:8d:a5:a9:b5, 2015-01-01 00:03:01.785, -0.003, -0.006, 1, -0.305, -1.038, 0, -0.423, 0.439, -101.025, -48.706, -9.310, -22.736, 22.3, 0.63586, 0.00031, 0.00455, -0.77173,
 14:53:47.120,d3:c7:8d:a5:a9:b5, 2015-01-01 00:03:01.785, -0.003, -0.007, 0.999, -0.244, 0, 0, -0.428, 0.434, -101.025, -48.706, -9.310, -22.736, 22.3, 0.63586, 0.00031, 0.00455, -0.77173,
 14:53:47.121,d3:c7:8d:a5:a9:b5, 2015-01-01 00:03:01.785, -0.009, -0.007, 0.999, -0.244, 0, 0, -0.428, 0.434, -101.025, -48.706, -9.310, -22.736, 22.3, 0.63586, 0.00031, 0.00455, -0.77173,
 14:53:47.150,d3:c7:8d:a5:a9:b5, 2015-01-01 00:03:01.785, -0.009, -0.007, 0.999, -0.122, 0.061, 0, -0.428, 0.434, -101.025, -48.706, -9.310, -22.932, 22.3, 0.63586, 0.00031, 0.00455, -0.77173,
 14:53:47.150,d3:c7:8d:a5:a9:b5, 2015-01-01 00:03:01.785, -0.009, -0.007, 0.999, -0.122, 0.061, 0, -0.434, 0.434, -101.025, -48.706, -9.310, -22.932, 22.3, 0.63586, 0.00031, 0.00455, -0.77173,
 14:53:47.150,d3:c7:8d:a5:a9:b5, 2015-01-01 00:03:01.785, -0.009, -0.007, 1, -0.061, -0.366, 0, -0.434, 0.434, -101.025, -48.706, -9.310, -22.932, 22.3, 0.63586, 0.00031, 0.00455, -0.77173,
 14:53:47.150,d3:c7:8d:a5:a9:b5, 2015-01-01 00:03:01.785, -0.004, -0.007, 1, -0.061, -0.366, 0, -0.434, 0.428, -101.025, -48.706, -9.310, -22.932, 22.3, 0.63586, 0.00031, 0.00455, -0.77173,
 14:53:47.209,d3:c7:8d:a5:a9:b5, 2015-01-01 00:03:01.785, -0.004, -0.009, 0.998, -0.122, 0.061, 0, -0.434, 0.428, -101.025, -48.706, -9.310, -22.932, 22.3, 0.63586, 0.00031, 0.00455, -0.77173,
 14:53:47.209,d3:c7:8d:a5:a9:b5, 2015-01-01 00:03:01.785, -0.006, -0.009, 0.998, -0.122, 0.061, 0, -0.434, 0.428, -101.025, -48.706, -9.310, -22.932, 22.3, 0.63586, 0.00031, 0.00455, -0.77173,
 14:53:47.209,d3:c7:8d:a5:a9:b5, 2015-01-01 00:03:01.785, -0.006, -0.009, 0.999, 0, 0.732, 0, -0.434, 0.434, -101.025, -48.706, -9.310, -22.932, 22.3, 0.63586, 0.00031, 0.00455, -0.77173,
 14:53:47.209,d3:c7:8d:a5:a9:b5, 2015-01-01 00:03:01.785, -0.012, -0.009, 0.999, 0, 0.732, 0, -0.434, 0.439, -101.025, -48.706, -9.310, -22.932, 22.3, 0.63586, 0.00031, 0.00455, -0.77173,
 14:53:47.239,d3:c7:8d:a5:a9:b5, 2015-01-01 00:03:01.785, -0.012, -0.007, 0.997, 0.061, 0.732, 0, -0.434, 0.45, -101.025, -48.706, -9.310, -22.932, 22.3, 0.63586, 0.00046, 0.00534, -0.77173,
 14:53:47.239,d3:c7:8d:a5:a9:b5, 2015-01-01 00:03:01.785, -0.013, -0.007, 0.997, 0.061, 0.732, 0, -0.434, 0.456, -101.025, -48.706, -9.310, -22.932, 22.3, 0.63586, 0.00046, 0.00534, -0.77173,
 14:53:47.239,d3:c7:8d:a5:a9:b5, 2015-01-01 00:03:01.785, -0.013, -0.006, 1, -0.244, 0.244, 0, -0.434, 0.461, -101.025, -48.706, -9.310, -22.932, 22.3, 0.63586, 0.00046, 0.00534, -0.77173,
 14:53:47.239,d3:c7:8d:a5:a9:b5, 2015-01-01 00:03:01.785, -0.013, -0.006, 1, -0.244, 0.244, 0, -0.439, 0.461, -101.025, -48.706, -9.310, -22.932, 22.3, 0.63586, 0.00046, 0.00534, -0.77173,
 14:53:47.270,d3:c7:8d:a5:a9:b5, 2015-01-01 00:03:01.785, -0.013, -0.006, 0.997, -0.793, -0.366, 0, -0.445, 0.461, -101.025, -48.706, -9.310, -22.932, 22.3, 0.63586, 0.00046, 0.00534, -0.77173,
 14:53:47.270,d3:c7:8d:a5:a9:b5, 2015-01-01 00:03:01.785, -0.002, -0.006, 0.997, -0.793, -0.366, 0, -0.45, 0.461, -101.025, -48.706, -9.310, -22.932, 22.3, 0.63586, 0.00046, 0.00534, -0.77173,
 14:53:47.270,d3:c7:8d:a5:a9:b5, 2015-01-01 00:03:01.785, -0.002, -0.008, 1.003, -1.404, 0.366, 0, -0.461, 0.461, -101.025, -48.706, -9.310, -22.932, 22.3, 0.63586, 0.00046, 0.00534, -0.77173,
 14:53:47.270,d3:c7:8d:a5:a9:b5, 2015-01-01 00:03:01.785, -0.002, -0.008, 1.003, -1.404, 0.366, 0, -0.478, 0.467, -101.025, -48.706, -9.310, -22.932, 22.3, 0.63586, 0.00046, 0.00534, -0.77173,
 14:53:47.329,d3:c7:8d:a5:a9:b5, 2015-01-01 00:03:02.145, -0.002, -0.01, 1, -0.61, 0.305, 0.305, -0.483, 0.467, -101.019, -48.706, -9.310, -22.932, 22.3, 0.63586, 0.00046, 0.00534, -0.77173,
 14:53:47.329,d3:c7:8d:a5:a9:b5, 2015-01-01 00:03:02.145, -0.012, -0.01, 1, -0.61, 0.305, 0.305, -0.489, 0.472, -101.019, -48.706, -9.310, -22.932, 22.3, 0.63586, 0.00046, 0.00534, -0.77173,
 14:53:47.329,d3:c7:8d:a5:a9:b5, 2015-01-01 00:03:02.145, -0.012, -0.013, 0.995, 0, 0.427, 0.244, -0.494, 0.472, -101.014, -48.706, -9.310, -22.932, 22.3, 0.63586, 0.00046, 0.00534, -0.77173,
 14:53:47.329,d3:c7:8d:a5:a9:b5, 2015-01-01 00:03:02.145, -0.004, -0.013, 0.995, 0, 0.427, 0.244, -0.494, 0.478, -101.014, -48.706, -9.310, -22.932, 22.3, 0.63586, 0.00046, 0.00534, -0.77173,
 14:53:47.358,d3:c7:8d:a5:a9:b5, 2015-01-01 00:03:02.145, -0.004, -0.007, 0.998, -0.061, 1.465, 0.122, -0.494, 0.489, -101.008, -48.706, -9.310, -22.932, 22.3, 0.63586, 0.00046, 0.00534, -0.77173,
 14:53:47.358,d3:c7:8d:a5:a9:b5, 2015-01-01 00:03:02.145, -0.01, -0.007, 0.998, -0.061, 1.465, 0.122, -0.494, 0.5, -101.008, -48.706, -9.310, -22.932, 22.3, 0.63586, 0.00046, 0.00534, -0.77173,
 14:53:47.358,d3:c7:8d:a5:a9:b5, 2015-01-01 00:03:02.145, -0.01, -0.009, 1.001, -0.244, 2.258, 0, -0.494, 0.522, -101.008, -48.706, -9.310, -22.932, 22.3, 0.63586, 0.00046, 0.00534, -0.77173,
 14:53:47.358,d3:c7:8d:a5:a9:b5, 2015-01-01 00:03:02.145, -0.023, -0.009, 1.001, -0.244, 2.258, 0, -0.5, 0.544, -101.008, -48.706, -9.310, -22.932, 22.3, 0.63586, 0.00046, 0.00534, -0.77173,
 14:53:47.390,d3:c7:8d:a5:a9:b5, 2015-01-01 00:03:02.145, -0.023, -0.008, 0.999, 0, 0.854, 0, -0.5, 0.56, -101.008, -48.706, -9.310, -22.932, 22.3, 0.63586, 0.00046, 0.00534, -0.77173,
 14:53:47.390,d3:c7:8d:a5:a9:b5, 2015-01-01 00:03:02.145, -0.017, -0.008, 0.999, 0, 0.854, 0, -0.5, 0.566, -101.008, -48.706, -9.310, -22.932, 22.3, 0.63586, 0.00046, 0.00534, -0.77173,
 14:53:47.390,d3:c7:8d:a5:a9:b5, 2015-01-01 00:03:02.145, -0.017, -0.009, 0.998, -0.244, -1.038, -0.061, -0.5, 0.566, -101.008, -48.706, -9.310, -22.932, 22.3, 0.63586, 0.00046, 0.00534, -0.77173,
 14:53:47.390,d3:c7:8d:a5:a9:b5, 2015-01-01 00:03:02.145, -0.007, -0.009, 0.998, -0.244, -1.038, -0.061, -0.505, 0.555, -101.008, -48.706, -9.310, -22.932, 22.3, 0.63586, 0.00046, 0.00534, -0.77173,
 14:53:47.449,d3:c7:8d:a5:a9:b5, 2015-01-01 00:03:02.145, -0.007, -0.009, 0.999, -0.122, -0.854, -0.122, -0.505, 0.549, -101.008, -48.706, -9.310, -22.932, 22.3, 0.63586, 0.00046, 0.00534, -0.77173,
 14:53:47.449,d3:c7:8d:a5:a9:b5, 2015-01-01 00:03:02.145, -0.005, -0.009, 0.999, -0.122, -0.854, -0.122, -0.505, 0.538, -101.008, -48.706, -9.310, -22.932, 22.3, 0.63586, 0.00046, 0.00534, -0.77173,
 14:53:47.449,d3:c7:8d:a5:a9:b5, 2015-01-01 00:03:02.145, -0.005, -0.008, 1, -0.305, -0.183, -0.122, -0.511, 0.538, -101.008, -48.706, -9.310, -22.932, 22.3, 0.63586, 0.00046, 0.00534, -0.77173,
 14:53:47.449,d3:c7:8d:a5:a9:b5, 2015-01-01 00:03:02.145, -0.013, -0.008, 1, -0.305, -0.183, -0.122, -0.511, 0.538, -101.008, -48.706, -9.310, -22.932, 22.3, 0.63586, 0.00046, 0.00534, -0.77173,
 14:53:47.481,d3:c7:8d:a5:a9:b5, 2015-01-01 00:03:02.145, -0.013, -0.01, 0.999, -0.366, -0.061, 0, -0.516, 0.538, -101.008, -48.706, -9.310, -22.932, 22.3, 0.63586, 0.00046, 0.00534, -0.77173,
 14:53:47.481,d3:c7:8d:a5:a9:b5, 2015-01-01 00:03:02.145, -0.011, -0.01, 0.999, -0.366, -0.061, 0, -0.522, 0.538, -101.008, -48.706, -9.310, -22.932, 22.3, 0.63586, 0.00046, 0.00534, -0.77173,
 14:53:47.481,d3:c7:8d:a5:a9:b5, 2015-01-01 00:03:02.145, -0.011, -0.01, 0.998, -0.305, -0.488, 0, -0.522, 0.533, -101.008, -48.706, -9.310, -22.932, 22.3, 0.63586, 0.00046, 0.00534, -0.77173,
 14:53:47.481,d3:c7:8d:a5:a9:b5, 2015-01-01 00:03:02.145, -0.003, -0.01, 0.998, -0.305, -0.488, 0, -0.527, 0.527, -101.008, -48.706, -9.310, -22.932, 22.3, 0.63586, 0.00046, 0.00534, -0.77173,
 14:53:47.540,d3:c7:8d:a5:a9:b5, 2015-01-01 00:03:02.145, -0.003, -0.009, 1, -0.61, 0.427, -0.122, -0.533, 0.533, -101.008, -48.608, -9.310, -22.834, 22.3, 0.63586, 0.00046, 0.00534, -0.77173,
 14:53:47.540,d3:c7:8d:a5:a9:b5, 2015-01-01 00:03:02.145, -0.01, -0.009, 1, -0.61, 0.427, -0.122, -0.538, 0.538, -101.014, -48.608, -9.310, -22.834, 22.3, 0.63586, 0.00046, 0.00534, -0.77173,
 14:53:47.540,d3:c7:8d:a5:a9:b5, 2015-01-01 00:03:02.145, -0.01, -0.009, 0.998, -0.061, 0.122, -0.061, -0.538, 0.538, -101.014, -48.608, -9.310, -22.834, 22.3, 0.63586, 0.00046, 0.00534, -0.77173,
 14:53:47.540,d3:c7:8d:a5:a9:b5, 2015-01-01 00:03:02.145, -0.014, -0.009, 0.998, -0.061, 0.122, -0.061, -0.538, 0.538, -101.014, -48.608, -9.310, -22.834, 22.3, 0.63586, 0.00046, 0.00534, -0.77173,
 14:53:47.569,d3:c7:8d:a5:a9:b5, 2015-01-01 00:03:02.145, -0.014, -0.01, 1, -0.122, -0.244, -0.061, -0.538, 0.538, -101.014, -48.608, -9.310, -22.834, 22.3, 0.63586, 0.00046, 0.00534, -0.77173,
 14:53:47.569,d3:c7:8d:a5:a9:b5, 2015-01-01 00:03:02.145, -0.015, -0.01, 1, -0.122, -0.244, -0.061, -0.544, 0.533, -101.014, -48.608, -9.310, -22.834, 22.3, 0.63586, 0.00046, 0.00534, -0.77173,
 14:53:47.569,d3:c7:8d:a5:a9:b5, 2015-01-01 00:03:02.145, -0.015, -0.011, 0.998, -0.061, -1.038, -0.122, -0.544, 0.522, -101.014, -48.608, -9.310, -22.834, 22.3, 0.63586, 0.00046, 0.00534, -0.77173,
 14:53:47.569,d3:c7:8d:a5:a9:b5, 2015-01-01 00:03:02.145, -0.008, -0.011, 0.998, -0.061, -1.038, -0.122, -0.544, 0.516, -101.014, -48.608, -9.310, -22.834, 22.3, 0.63586, 0.00046, 0.00534, -0.77173,
 14:53:47.599,d3:c7:8d:a5:a9:b5, 2015-01-01 00:03:02.145, -0.008, -0.011, 0.998, 0.061, -1.282, -0.061, -0.544, 0.5, -101.014, -48.608, -9.310, -22.834, 22.3, 0.63593, 0.00037, 0.00647, -0.77167,
 14:53:47.599,d3:c7:8d:a5:a9:b5, 2015-01-01 00:03:02.145, -0.005, -0.011, 0.998, 0.061, -1.282, -0.061, -0.544, 0.489, -101.014, -48.608, -9.310, -22.834, 22.3, 0.63593, 0.00037, 0.00647, -0.77167,
 14:53:47.599,d3:c7:8d:a5:a9:b5, 2015-01-01 00:03:02.145, -0.005, -0.009, 0.999, 0, -0.549, -0.061, -0.544, 0.483, -101.014, -48.608, -9.310, -22.834, 22.3, 0.63593, 0.00037, 0.00647, -0.77167,
 14:53:47.599,d3:c7:8d:a5:a9:b5, 2015-01-01 00:03:02.145, -0.007, -0.009, 0.999, 0, -0.549, -0.061, -0.544, 0.478, -101.014, -48.608, -9.310, -22.834, 22.3, 0.63593, 0.00037, 0.00647, -0.77167,
 14:53:47.630,d3:c7:8d:a5:a9:b5, 2015-01-01 00:03:02.145, -0.007, -0.009, 0.999, -0.061, -0.183, 0, -0.544, 0.478, -101.014, -48.608, -9.310, -22.834, 22.3, 0.63593, 0.00037, 0.00647, -0.77167,
 14:53:47.630,d3:c7:8d:a5:a9:b5, 2015-01-01 00:03:02.145, -0.008, -0.009, 0.999, -0.061, -0.183, 0, -0.544, 0.478, -101.014, -48.608, -9.310, -22.834, 22.3, 0.63593, 0.00037, 0.00647, -0.77167,
 14:53:47.630,d3:c7:8d:a5:a9:b5, 2015-01-01 00:03:02.145, -0.008, -0.008, 0.999, -0.122, -0.305, -0.061, -0.544, 0.472, -101.014, -48.608, -9.310, -22.834, 22.3, 0.63593, 0.00037, 0.00647, -0.77167,
 14:53:47.630,d3:c7:8d:a5:a9:b5, 2015-01-01 00:03:02.145, -0.007, -0.008, 0.999, -0.122, -0.305, -0.061, -0.544, 0.472, -101.014, -48.608, -9.310, -22.834, 22.3, 0.63593, 0.00037, 0.00647, -0.77167,
 14:53:47.689,d3:c7:8d:a5:a9:b5, 2015-01-01 00:03:02.500, -0.007, -0.01, 0.999, -0.366, 0, -0.122, -0.549, 0.472, -101.014, -48.608, -9.310, -22.834, 22.3, 0.63593, 0.00037, 0.00647, -0.77167,
 14:53:47.689,d3:c7:8d:a5:a9:b5, 2015-01-01 00:03:02.500, -0.011, -0.01, 0.999, -0.366, 0, -0.122, -0.555, 0.472, -101.014, -48.608, -9.310, -22.834, 22.3, 0.63593, 0.00037, 0.00647, -0.77167,
 14:53:47.689,d3:c7:8d:a5:a9:b5, 2015-01-01 00:03:02.500, -0.011, -0.012, 0.999, -0.122, -0.183, -0.122, -0.555, 0.472, -101.014, -48.608, -9.310, -22.834, 22.3, 0.63593, 0.00037, 0.00647, -0.77167,
 14:53:47.689,d3:c7:8d:a5:a9:b5, 2015-01-01 00:03:02.500, -0.009, -0.012, 0.999, -0.122, -0.183, -0.122, -0.555, 0.467, -101.014, -48.608, -9.310, -22.834, 22.3, 0.63593, 0.00037, 0.00647, -0.77167,
 14:53:47.719,d3:c7:8d:a5:a9:b5, 2015-01-01 00:03:02.500, -0.009, -0.01, 0.999, 0, -0.488, -0.061, -0.555, 0.467, -101.014, -48.608, -9.310, -22.834, 22.3, 0.63593, 0.00037, 0.00647, -0.77167,
 14:53:47.719,d3:c7:8d:a5:a9:b5, 2015-01-01 00:03:02.500, -0.005, -0.01, 0.999, 0, -0.488, -0.061, -0.555, 0.461, -101.014, -48.608, -9.310, -22.834, 22.3, 0.63593, 0.00037, 0.00647, -0.77167,
 14:53:47.719,d3:c7:8d:a5:a9:b5, 2015-01-01 00:03:02.500, -0.005, -0.01, 0.998, 0, -0.122, 0, -0.555, 0.461, -101.014, -48.608, -9.310, -22.834, 22.3, 0.63593, 0.00037, 0.00647, -0.77167,
 14:53:47.719,d3:c7:8d:a5:a9:b5, 2015-01-01 00:03:02.500, -0.004, -0.01, 0.998, 0, -0.122, 0, -0.555, 0.456, -101.014, -48.608, -9.310, -22.834, 22.3, 0.63593, 0.00037, 0.00647, -0.77167,
 14:53:47.750,d3:c7:8d:a5:a9:b5, 2015-01-01 00:03:02.500, -0.004, -0.009, 0.999, 0.122, 0.549, 0.061, -0.555, 0.461, -101.014, -48.608, -9.310, -22.834, 22.3, 0.63593, 0.00037, 0.00647, -0.77167,
 14:53:47.750,d3:c7:8d:a5:a9:b5, 2015-01-01 00:03:02.500, -0.012, -0.009, 0.999, 0.122, 0.549, 0.061, -0.555, 0.467, -101.014, -48.608, -9.310, -22.834, 22.3, 0.63593, 0.00037, 0.00647, -0.77167,
 14:53:47.750,d3:c7:8d:a5:a9:b5, 2015-01-01 00:03:02.500, -0.012, -0.009, 0.998, 0, 0.671, 0, -0.555, 0.478, -101.014, -48.608, -9.310, -22.834, 22.3, 0.63593, 0.00037, 0.00647, -0.77167,
 14:53:47.750,d3:c7:8d:a5:a9:b5, 2015-01-01 00:03:02.500, -0.014, -0.009, 0.998, 0, 0.671, 0, -0.555, 0.483, -101.014, -48.608, -9.310, -22.834, 22.3, 0.63593, 0.00037, 0.00647, -0.77167,
 14:53:47.809,d3:c7:8d:a5:a9:b5, 2015-01-01 00:03:02.500, -0.014, -0.009, 0.999, -0.122, -0.061, 0, -0.555, 0.483, -101.014, -48.608, -9.310, -22.834, 22.3, 0.63593, 0.00037, 0.00647, -0.77167,
 14:53:47.809,d3:c7:8d:a5:a9:b5, 2015-01-01 00:03:02.500, -0.012, -0.009, 0.999, -0.122, -0.061, 0, -0.555, 0.483, -101.014, -48.608, -9.310, -22.834, 22.3, 0.63593, 0.00037, 0.00647, -0.77167,
 14:53:47.809,d3:c7:8d:a5:a9:b5, 2015-01-01 00:03:02.500, -0.012, -0.011, 0.999, -0.183, -1.038, 0, -0.56, 0.472, -101.014, -48.608, -9.310, -22.834, 22.3, 0.63593, 0.00037, 0.00647, -0.77167,
 14:53:47.809,d3:c7:8d:a5:a9:b5, 2015-01-01 00:03:02.500, -0.002, -0.011, 0.999, -0.183, -1.038, 0, -0.56, 0.461, -101.008, -48.608, -9.310, -22.834, 22.3, 0.63593, 0.00037, 0.00647, -0.77167,
 14:53:47.839,d3:c7:8d:a5:a9:b5, 2015-01-01 00:03:02.500, -0.002, -0.011, 0.999, -0.061, -0.61, 0, -0.56, 0.456, -101.008, -48.608, -9.310, -22.834, 22.3, 0.63593, 0.00037, 0.00647, -0.77167,
 14:53:47.839,d3:c7:8d:a5:a9:b5, 2015-01-01 00:03:02.500, 0, -0.011, 0.999, -0.061, -0.61, 0, -0.56, 0.45, -101.008, -48.608, -9.310, -22.834, 22.3, 0.63593, 0.00037, 0.00647, -0.77167,
 14:53:47.839,d3:c7:8d:a5:a9:b5, 2015-01-01 00:03:02.500, -0.008, -0.01, 1, 0, 0.488, 0, -0.56, 0.456, -101.008, -48.608, -9.310, -22.834, 22.3, 0.63593, 0.00037, 0.00647, -0.77167,
 14:53:47.839,d3:c7:8d:a5:a9:b5, 2015-01-01 00:03:02.500, -0.008, -0.009, 1, 0.305, 0.916, 0, -0.56, 0.461, -101.008, -48.608, -9.310, -22.834, 22.3, 0.63593, 0.00037, 0.00647, -0.77167,
 14:53:47.869,d3:c7:8d:a5:a9:b5, 2015-01-01 00:03:02.500, -0.013, -0.009, 1, 0.305, 0.916, 0, -0.555, 0.472, -101.008, -48.706, -9.212, -22.736, 22.3, 0.63593, 0.00037, 0.00647, -0.77167,
 14:53:47.869,d3:c7:8d:a5:a9:b5, 2015-01-01 00:03:02.500, -0.013, -0.01, 0.999, 0.366, 0.671, 0, -0.555, 0.478, -101.008, -48.706, -9.212, -22.736, 22.3, 0.63593, 0.00037, 0.00647, -0.77167,
 14:53:47.869,d3:c7:8d:a5:a9:b5, 2015-01-01 00:03:02.500, -0.014, -0.01, 0.999, 0.366, 0.671, 0, -0.549, 0.483, -101.008, -48.706, -9.212, -22.736, 22.3, 0.63593, 0.00037, 0.00647, -0.77167,
 14:53:47.869,d3:c7:8d:a5:a9:b5, 2015-01-01 00:03:02.500, -0.014, -0.011, 0.997, 0.427, -0.122, 0, -0.544, 0.489, -101.008, -48.706, -9.212, -22.736, 22.3, 0.63593, 0.00037, 0.00647, -0.77167,
 14:53:47.933,d3:c7:8d:a5:a9:b5, 2015-01-01 00:03:02.500, -0.013, -0.011, 0.997, 0.427, -0.122, 0, -0.544, 0.489, -101.008, -48.706, -9.212, -22.736, 22.3, 0.63593, 0.00037, 0.00647, -0.77167,
 14:53:47.933,d3:c7:8d:a5:a9:b5, 2015-01-01 00:03:02.500, -0.013, -0.009, 0.998, 0.244, -0.671, 0, -0.538, 0.483, -101.008, -48.706, -9.212, -22.736, 22.3, 0.63593, 0.00037, 0.00647, -0.77167,
 14:53:47.934,d3:c7:8d:a5:a9:b5, 2015-01-01 00:03:02.500, -0.003, -0.009, 0.998, 0.244, -0.671, 0, -0.538, 0.478, -101.003, -48.706, -9.212, -22.736, 22.3, 0.63593, 0.00037, 0.00647, -0.77167,
 14:53:47.934,d3:c7:8d:a5:a9:b5, 2015-01-01 00:03:02.500, -0.003, -0.007, 1, 0, -0.732, 0, -0.538, 0.472, -101.003, -48.706, -9.212, -22.736, 22.3, 0.63593, 0.00037, 0.00647, -0.77167,
 14:53:47.960,d3:c7:8d:a5:a9:b5, 2015-01-01 00:03:02.500, -0.002, -0.007, 1, 0, -0.732, 0, -0.538, 0.467, -101.003, -48.706, -9.212, -22.736, 22.3, 0.63599, 0.00024, 0.00635, -0.77161,
 14:53:47.960,d3:c7:8d:a5:a9:b5, 2015-01-01 00:03:02.500, -0.002, -0.008, 0.998, -0.244, 0.244, 0, -0.538, 0.461, -101.003, -48.706, -9.212, -22.736, 22.3, 0.63599, 0.00024, 0.00635, -0.77161,
 14:53:47.960,d3:c7:8d:a5:a9:b5, 2015-01-01 00:03:02.500, -0.004, -0.008, 0.998, -0.244, 0.244, 0, -0.538, 0.467, -101.003, -48.706, -9.212, -22.736, 22.3, 0.63599, 0.00024, 0.00635, -0.77161,
 14:53:47.960,d3:c7:8d:a5:a9:b5, 2015-01-01 00:03:02.500, -0.004, -0.012, 1, -0.061, 1.221, 0, -0.544, 0.472, -101.003, -48.706, -9.212, -22.736, 22.3, 0.63599, 0.00024, 0.00635, -0.77161,
 14:53:47.989,d3:c7:8d:a5:a9:b5, 2015-01-01 00:03:02.500, -0.015, -0.012, 1, -0.061, 1.221, 0, -0.544, 0.483, -101.003, -48.706, -9.212, -22.736, 22.3, 0.63599, 0.00024, 0.00635, -0.77161,
 14:53:47.989,d3:c7:8d:a5:a9:b5, 2015-01-01 00:03:02.500, -0.015, -0.012, 0.998, 0.366, 0.916, 0, -0.538, 0.494, -101.003, -48.706, -9.212, -22.736, 22.3, 0.63599, 0.00024, 0.00635, -0.77161,
 14:53:47.989,d3:c7:8d:a5:a9:b5, 2015-01-01 00:03:02.500, -0.016, -0.012, 0.998, 0.366, 0.916, 0, -0.538, 0.505, -101.003, -48.706, -9.212, -22.736, 22.3, 0.63599, 0.00024, 0.00635, -0.77161,
 14:53:47.989,d3:c7:8d:a5:a9:b5, 2015-01-01 00:03:02.500, -0.016, -0.01, 0.999, 0.61, -0.366, 0, -0.533, 0.505, -101.003, -48.706, -9.212, -22.736, 22.3, 0.63599, 0.00024, 0.00635, -0.77161,
 14:53:48.048,d3:c7:8d:a5:a9:b5, 2015-01-01 00:03:02.860, -0.005, -0.01, 0.999, 0.61, -0.366, 0, -0.527, 0.5, -101.003, -48.706, -9.212, -22.736, 22.3, 0.63599, 0.00024, 0.00635, -0.77161,
 14:53:48.048,d3:c7:8d:a5:a9:b5, 2015-01-01 00:03:02.860, -0.005, -0.008, 0.999, 0.549, -0.732, 0, -0.522, 0.5, -101.003, -48.706, -9.212, -22.736, 22.3, 0.63599, 0.00024, 0.00635, -0.77161,
 14:53:48.048,d3:c7:8d:a5:a9:b5, 2015-01-01 00:03:02.860, -0.004, -0.008, 0.999, 0.549, -0.732, 0, -0.516, 0.489, -101.003, -48.706, -9.212, -22.736, 22.3, 0.63599, 0.00024, 0.00635, -0.77161,
 14:53:48.048,d3:c7:8d:a5:a9:b5, 2015-01-01 00:03:02.860, -0.004, -0.007, 0.999, 0.305, 0.427, 0, -0.511, 0.489, -101.003, -48.706, -9.212, -22.736, 22.3, 0.63599, 0.00024, 0.00635, -0.77161,
 14:53:48.081,d3:c7:8d:a5:a9:b5, 2015-01-01 00:03:02.860, -0.011, -0.007, 0.999, 0.305, 0.427, 0, -0.511, 0.494, -101.003, -48.706, -9.212, -22.736, 22.3, 0.63599, 0.00024, 0.00635, -0.77161,
 14:53:48.081,d3:c7:8d:a5:a9:b5, 2015-01-01 00:03:02.860, -0.011, -0.009, 1, 0.061, 0.671, 0, -0.505, 0.5, -101.003, -48.706, -9.212, -22.736, 22.3, 0.63599, 0.00024, 0.00635, -0.77161,
 14:53:48.081,d3:c7:8d:a5:a9:b5, 2015-01-01 00:03:02.860, -0.019, -0.009, 1, 0.061, 0.671, 0, -0.505, 0.505, -100.997, -48.706, -9.212, -22.736, 22.3, 0.63599, 0.00024, 0.00635, -0.77161,
 14:53:48.081,d3:c7:8d:a5:a9:b5, 2015-01-01 00:03:02.860, -0.019, -0.009, 0.998, 0, -0.366, 0, -0.505, 0.505, -100.997, -48.706, -9.212, -22.736, 22.3, 0.63599, 0.00024, 0.00635, -0.77161,
 14:53:48.109,d3:c7:8d:a5:a9:b5, 2015-01-01 00:03:02.860, -0.007, -0.009, 0.998, 0, -0.366, 0, -0.505, 0.505, -100.997, -48.706, -9.212, -22.736, 22.3, 0.63599, 0.00024, 0.00635, -0.77161,
 14:53:48.109,d3:c7:8d:a5:a9:b5, 2015-01-01 00:03:02.860, -0.007, -0.009, 1, 0, -1.221, 0, -0.505, 0.494, -100.997, -48.706, -9.212, -22.736, 22.3, 0.63599, 0.00024, 0.00635, -0.77161,
 14:53:48.109,d3:c7:8d:a5:a9:b5, 2015-01-01 00:03:02.860, -0.001, -0.009, 1, 0, -1.221, 0, -0.505, 0.483, -100.997, -48.706, -9.212, -22.736, 22.3, 0.63599, 0.00024, 0.00635, -0.77161,
 14:53:48.109,d3:c7:8d:a5:a9:b5, 2015-01-01 00:03:02.860, -0.001, -0.008, 0.998, 0.305, -0.183, 0, -0.505, 0.478, -100.997, -48.706, -9.212, -22.736, 22.3, 0.63599, 0.00024, 0.00635, -0.77161,
 14:53:48.171,d3:c7:8d:a5:a9:b5, 2015-01-01 00:03:02.860, -0.004, -0.008, 0.998, 0.305, -0.183, 0, -0.505, 0.478, -100.997, -48.706, -9.212, -22.736, 22.3, 0.63599, 0.00024, 0.00635, -0.77161,
 14:53:48.171,d3:c7:8d:a5:a9:b5, 2015-01-01 00:03:02.860, -0.004, -0.008, 0.999, 0.244, 0.732, 0, -0.5, 0.478, -100.997, -48.706, -9.212, -22.736, 22.3, 0.63599, 0.00024, 0.00635, -0.77161,
 14:53:48.171,d3:c7:8d:a5:a9:b5, 2015-01-01 00:03:02.860, -0.009, -0.008, 0.999, 0.244, 0.732, 0, -0.5, 0.489, -100.997, -48.706, -9.212, -22.736, 22.3, 0.63599, 0.00024, 0.00635, -0.77161,
 14:53:48.171,d3:c7:8d:a5:a9:b5, 2015-01-01 00:03:02.860, -0.009, -0.007, 0.998, 0, 1.038, 0, -0.5, 0.494, -100.997, -48.706, -9.212, -22.736, 22.3, 0.63599, 0.00024, 0.00635, -0.77161,
 14:53:48.202,d3:c7:8d:a5:a9:b5, 2015-01-01 00:03:02.860, -0.01, -0.007, 0.998, 0, 1.038, 0, -0.5, 0.505, -100.997, -48.706, -9.212, -22.736, 22.3, 0.63599, 0.00024, 0.00635, -0.77161,
 14:53:48.202,d3:c7:8d:a5:a9:b5, 2015-01-01 00:03:02.860, -0.01, -0.01, 1, 0.122, 0.61, 0, -0.5, 0.511, -100.997, -48.706, -9.212, -22.736, 22.3, 0.63599, 0.00024, 0.00635, -0.77161,
 14:53:48.202,d3:c7:8d:a5:a9:b5, 2015-01-01 00:03:02.860, -0.016, -0.01, 1, 0.122, 0.61, 0, -0.494, 0.516, -100.997, -48.706, -9.212, -22.736, 22.3, 0.63599, 0.00024, 0.00635, -0.77161,
 14:53:48.203,d3:c7:8d:a5:a9:b5, 2015-01-01 00:03:02.860, -0.016, -0.009, 0.997, 0.244, 0.061, 0, -0.494, 0.522, -100.997, -48.706, -9.212, -22.736, 22.3, 0.63599, 0.00024, 0.00635, -0.77161,
 14:53:48.260,d3:c7:8d:a5:a9:b5, 2015-01-01 00:03:02.860, -0.011, -0.009, 0.997, 0.244, 0.061, 0, -0.494, 0.522, -100.997, -48.510, -9.212, -22.834, 22.3, 0.63599, 0.00024, 0.00635, -0.77161,
 14:53:48.260,d3:c7:8d:a5:a9:b5, 2015-01-01 00:03:02.860, -0.011, -0.009, 1, 0.244, -0.488, 0, -0.489, 0.522, -100.997, -48.510, -9.212, -22.834, 22.3, 0.63599, 0.00024, 0.00635, -0.77161,
 14:53:48.260,d3:c7:8d:a5:a9:b5, 2015-01-01 00:03:02.860, -0.006, -0.009, 1, 0.244, -0.488, 0, -0.489, 0.516, -100.997, -48.510, -9.212, -22.834, 22.3, 0.63599, 0.00024, 0.00635, -0.77161,
 14:53:48.260,d3:c7:8d:a5:a9:b5, 2015-01-01 00:03:02.860, -0.006, -0.007, 0.998, 0.122, -0.122, 0, -0.489, 0.511, -100.997, -48.510, -9.212, -22.834, 22.3, 0.63599, 0.00024, 0.00635, -0.77161,
 14:53:48.290,d3:c7:8d:a5:a9:b5, 2015-01-01 00:03:02.860, -0.009, -0.007, 0.998, 0.122, -0.122, 0, -0.483, 0.511, -100.997, -48.510, -9.212, -22.834, 22.3, 0.63605, 0.00073, 0.00613, -0.77155,
 14:53:48.290,d3:c7:8d:a5:a9:b5, 2015-01-01 00:03:02.860, -0.009, -0.008, 0.998, 0, 0.244, 0, -0.483, 0.511, -100.997, -48.510, -9.212, -22.834, 22.3, 0.63605, 0.00073, 0.00613, -0.77155,
 14:53:48.290,d3:c7:8d:a5:a9:b5, 2015-01-01 00:03:02.860, -0.012, -0.008, 0.998, 0, 0.244, 0, -0.483, 0.516, -100.997, -48.510, -9.212, -22.834, 22.3, 0.63605, 0.00073, 0.00613, -0.77155,
 14:53:48.290,d3:c7:8d:a5:a9:b5, 2015-01-01 00:03:02.860, -0.012, -0.008, 1, 0.061, 0, 0, -0.483, 0.516, -100.997, -48.510, -9.212, -22.834, 22.3, 0.63605, 0.00073, 0.00613, -0.77155,
 14:53:48.321,d3:c7:8d:a5:a9:b5, 2015-01-01 00:03:02.860, -0.012, -0.008, 1, 0.061, 0, 0, -0.483, 0.516, -100.997, -48.510, -9.212, -22.834, 22.3, 0.63605, 0.00073, 0.00613, -0.77155,
 14:53:48.321,d3:c7:8d:a5:a9:b5, 2015-01-01 00:03:02.860, -0.012, -0.007, 0.998, -0.061, -0.427, 0, -0.483, 0.516, -100.997, -48.510, -9.212, -22.834, 22.3, 0.63605, 0.00073, 0.00613, -0.77155,
 14:53:48.321,d3:c7:8d:a5:a9:b5, 2015-01-01 00:03:02.860, -0.003, -0.007, 0.998, -0.061, -0.427, 0, -0.483, 0.511, -100.997, -48.510, -9.212, -22.834, 22.3, 0.63605, 0.00073, 0.00613, -0.77155,
 14:53:48.321,d3:c7:8d:a5:a9:b5, 2015-01-01 00:03:02.860, -0.003, -0.008, 0.999, -0.305, 0, 0, -0.489, 0.511, -100.997, -48.510, -9.212, -22.834, 22.3, 0.63605, 0.00073, 0.00613, -0.77155,
 14:53:48.379,d3:c7:8d:a5:a9:b5, 2015-01-01 00:03:03.185, -0.006, -0.008, 0.999, -0.305, 0, 0, -0.489, 0.511, -100.997, -48.510, -9.212, -22.834, 22.3, 0.63605, 0.00073, 0.00613, -0.77155,
 14:53:48.379,d3:c7:8d:a5:a9:b5, 2015-01-01 00:03:03.185, -0.006, -0.009, 0.999, -0.305, 0.671, 0, -0.494, 0.516, -100.997, -48.510, -9.212, -22.834, 22.3, 0.63605, 0.00073, 0.00613, -0.77155,
 14:53:48.379,d3:c7:8d:a5:a9:b5, 2015-01-01 00:03:03.185, -0.01, -0.009, 0.999, -0.305, 0.671, 0, -0.5, 0.522, -100.997, -48.510, -9.212, -22.834, 22.3, 0.63605, 0.00073, 0.00613, -0.77155,
 14:53:48.379,d3:c7:8d:a5:a9:b5, 2015-01-01 00:03:03.185, -0.01, -0.009, 1, -0.061, 0.61, 0, -0.5, 0.527, -100.997, -48.510, -9.212, -22.834, 22.3, 0.63605, 0.00073, 0.00613, -0.77155,
 14:53:48.408,d3:c7:8d:a5:a9:b5, 2015-01-01 00:03:03.185, -0.013, -0.009, 1, -0.061, 0.61, 0, -0.5, 0.533, -100.997, -48.510, -9.212, -22.834, 22.3, 0.63605, 0.00073, 0.00613, -0.77155,
 14:53:48.408,d3:c7:8d:a5:a9:b5, 2015-01-01 00:03:03.185, -0.013, -0.009, 0.998, 0, 0.366, 0, -0.5, 0.538, -100.997, -48.510, -9.212, -22.834, 22.3, 0.63605, 0.00073, 0.00613, -0.77155,
 14:53:48.408,d3:c7:8d:a5:a9:b5, 2015-01-01 00:03:03.185, -0.014, -0.009, 0.998, 0, 0.366, 0, -0.5, 0.544, -100.997, -48.510, -9.212, -22.834, 22.3, 0.63605, 0.00073, 0.00613, -0.77155,
 14:53:48.408,d3:c7:8d:a5:a9:b5, 2015-01-01 00:03:03.185, -0.014, -0.008, 0.999, 0, -0.122, 0, -0.5, 0.538, -100.997, -48.510, -9.212, -22.834, 22.3, 0.63605, 0.00073, 0.00613, -0.77155,
 14:53:48.439,d3:c7:8d:a5:a9:b5, 2015-01-01 00:03:03.185, -0.01, -0.008, 0.999, 0, -0.122, 0, -0.5, 0.538, -100.997, -48.510, -9.212, -22.834, 22.3, 0.63605, 0.00073, 0.00613, -0.77155,
 14:53:48.439,d3:c7:8d:a5:a9:b5, 2015-01-01 00:03:03.185, -0.01, -0.008, 0.999, -0.122, -0.305, 0, -0.5, 0.538, -100.997, -48.510, -9.212, -22.834, 22.3, 0.63605, 0.00073, 0.00613, -0.77155,
 14:53:48.439,d3:c7:8d:a5:a9:b5, 2015-01-01 00:03:03.185, -0.012, -0.008, 0.999, -0.122, -0.305, 0, -0.5, 0.533, -100.997, -48.510, -9.212, -22.834, 22.3, 0.63605, 0.00073, 0.00613, -0.77155,
 14:53:48.439,d3:c7:8d:a5:a9:b5, 2015-01-01 00:03:03.185, -0.012, -0.009, 1, -0.122, -0.488, 0, -0.5, 0.527, -100.997, -48.510, -9.212, -22.834, 22.3, 0.63605, 0.00073, 0.00613, -0.77155,
 14:53:48.500,d3:c7:8d:a5:a9:b5, 2015-01-01 00:03:03.185, -0.01, -0.009, 1, -0.122, -0.488, 0, -0.505, 0.527, -100.997, -48.510, -9.212, -22.834, 22.3, 0.63605, 0.00073, 0.00613, -0.77155,
 14:53:48.500,d3:c7:8d:a5:a9:b5, 2015-01-01 00:03:03.185, -0.01, -0.01, 0.998, 0, -0.854, 0, -0.505, 0.516, -100.997, -48.510, -9.212, -22.834, 22.3, 0.63605, 0.00073, 0.00613, -0.77155,
 14:53:48.500,d3:c7:8d:a5:a9:b5, 2015-01-01 00:03:03.185, -0.007, -0.01, 0.998, 0, -0.854, 0, -0.505, 0.511, -100.997, -48.510, -9.212, -22.834, 22.3, 0.63605, 0.00073, 0.00613, -0.77155,
 14:53:48.500,d3:c7:8d:a5:a9:b5, 2015-01-01 00:03:03.185, -0.007, -0.008, 1, 0.122, -0.854, 0, -0.5, 0.5, -100.997, -48.510, -9.212, -22.834, 22.3, 0.63605, 0.00073, 0.00613, -0.77155,
 14:53:48.530,d3:c7:8d:a5:a9:b5, 2015-01-01 00:03:03.185, -0.007, -0.008, 1, 0.122, -0.854, 0, -0.5, 0.494, -100.997, -48.510, -9.212, -22.834, 22.3, 0.63605, 0.00073, 0.00613, -0.77155,
 14:53:48.530,d3:c7:8d:a5:a9:b5, 2015-01-01 00:03:03.185, -0.007, -0.009, 0.999, 0.061, -0.671, 0, -0.5, 0.489, -100.997, -48.510, -9.212, -22.834, 22.3, 0.63605, 0.00073, 0.00613, -0.77155,
 14:53:48.530,d3:c7:8d:a5:a9:b5, 2015-01-01 00:03:03.185, -0.002, -0.009, 0.999, 0.061, -0.671, 0, -0.5, 0.483, -100.992, -48.510, -9.212, -22.834, 22.3, 0.63605, 0.00073, 0.00613, -0.77155,
 14:53:48.530,d3:c7:8d:a5:a9:b5, 2015-01-01 00:03:03.185, -0.002, -0.007, 0.998, 0, 0, 0, -0.5, 0.483, -100.992, -48.510, -9.212, -22.834, 22.3, 0.63605, 0.00073, 0.00613, -0.77155,
 14:53:48.560,d3:c7:8d:a5:a9:b5, 2015-01-01 00:03:03.185, -0.008, -0.007, 0.998, 0, 0, 0, -0.5, 0.483, -100.992, -48.706, -9.212, -22.834, 22.3, 0.63605, 0.00073, 0.00613, -0.77155,
 14:53:48.560,d3:c7:8d:a5:a9:b5, 2015-01-01 00:03:03.185, -0.008, -0.009, 1.001, 0, 0.366, 0, -0.5, 0.483, -100.992, -48.706, -9.212, -22.834, 22.3, 0.63605, 0.00073, 0.00613, -0.77155,
 14:53:48.560,d3:c7:8d:a5:a9:b5, 2015-01-01 00:03:03.185, -0.015, -0.009, 1.001, 0, 0.366, 0, -0.5, 0.489, -100.992, -48.706, -9.212, -22.834, 22.3, 0.63605, 0.00073, 0.00613, -0.77155,
 14:53:48.560,d3:c7:8d:a5:a9:b5, 2015-01-01 00:03:03.185, -0.015, -0.01, 0.998, 0.183, 0.061, 0, -0.5, 0.489, -100.992, -48.706, -9.212, -22.834, 22.3, 0.63605, 0.00073, 0.00613, -0.77155,
 14:53:48.620,d3:c7:8d:a5:a9:b5, 2015-01-01 00:03:03.185, -0.014, -0.01, 0.998, 0.183, 0.061, 0, -0.494, 0.489, -100.992, -48.706, -9.212, -22.834, 22.3, 0.63605, 0.00073, 0.00613, -0.77155,
 14:53:48.620,d3:c7:8d:a5:a9:b5, 2015-01-01 00:03:03.185, -0.014, -0.01, 0.998, 0.122, -0.854, 0, -0.494, 0.483, -100.992, -48.706, -9.212, -22.834, 22.3, 0.63605, 0.00073, 0.00613, -0.77155,
 14:53:48.620,d3:c7:8d:a5:a9:b5, 2015-01-01 00:03:03.185, -0.008, -0.01, 0.998, 0.122, -0.854, 0, -0.494, 0.472, -100.992, -48.706, -9.212, -22.834, 22.3, 0.63605, 0.00073, 0.00613, -0.77155,
 14:53:48.620,d3:c7:8d:a5:a9:b5, 2015-01-01 00:03:03.185, -0.008, -0.006, 0.998, 0, -1.221, 0, -0.494, 0.461, -100.992, -48.706, -9.212, -22.834, 22.3, 0.63605, 0.00073, 0.00613, -0.77155,
 14:53:48.650,d3:c7:8d:a5:a9:b5, 2015-01-01 00:03:03.185, -0.002, -0.006, 0.998, 0, -1.221, 0, -0.494, 0.45, -100.992, -48.706, -9.212, -22.834, 22.3, 0.63608, 0.00046, 0.00601, -0.77151,
 14:53:48.650,d3:c7:8d:a5:a9:b5, 2015-01-01 00:03:03.185, -0.002, -0.008, 1, -0.244, -0.793, 0, -0.5, 0.445, -100.992, -48.706, -9.212, -22.834, 22.3, 0.63608, 0.00046, 0.00601, -0.77151,
 14:53:48.650,d3:c7:8d:a5:a9:b5, 2015-01-01 00:03:03.185, -0.006, -0.008, 1, -0.244, -0.793, 0, -0.5, 0.434, -100.992, -48.706, -9.212, -22.834, 22.3, 0.63608, 0.00046, 0.00601, -0.77151,
 14:53:48.650,d3:c7:8d:a5:a9:b5, 2015-01-01 00:03:03.185, -0.006, -0.008, 0.998, -0.183, -0.122, 0, -0.5, 0.434, -100.992, -48.706, -9.212, -22.834, 22.3, 0.63608, 0.00046, 0.00601, -0.77151,
 14:53:48.681,d3:c7:8d:a5:a9:b5, 2015-01-01 00:03:03.185, -0.001, -0.008, 0.998, -0.183, -0.122, 0, -0.505, 0.434, -100.992, -48.706, -9.212, -22.834, 22.3, 0.63608, 0.00046, 0.00601, -0.77151,
 14:53:48.681,d3:c7:8d:a5:a9:b5, 2015-01-01 00:03:03.185, -0.001, -0.009, 1, -0.061, 0.61, 0, -0.505, 0.439, -100.992, -48.706, -9.212, -22.834, 22.3, 0.63608, 0.00046, 0.00601, -0.77151,
 14:53:48.681,d3:c7:8d:a5:a9:b5, 2015-01-01 00:03:03.185, -0.009, -0.009, 1, -0.061, 0.61, 0, -0.505, 0.445, -100.992, -48.706, -9.212, -22.834, 22.3, 0.63608, 0.00046, 0.00601, -0.77151,
 14:53:48.681,d3:c7:8d:a5:a9:b5, 2015-01-01 00:03:03.185, -0.009, -0.01, 0.997, 0, 0.854, 0, -0.505, 0.456, -100.992, -48.706, -9.212, -22.834, 22.3, 0.63608, 0.00046, 0.00601, -0.77151,
 14:53:48.739,d3:c7:8d:a5:a9:b5, 2015-01-01 00:03:03.545, -0.016, -0.01, 0.997, 0, 0.854, 0, -0.505, 0.461, -100.992, -48.706, -9.212, -22.834, 22.3, 0.63608, 0.00046, 0.00601, -0.77151,
 14:53:48.739,d3:c7:8d:a5:a9:b5, 2015-01-01 00:03:03.545, -0.016, -0.009, 1, 0.061, 0.122, 0, -0.505, 0.461, -100.986, -48.706, -9.212, -22.834, 22.3, 0.63608, 0.00046, 0.00601, -0.77151,
 14:53:48.739,d3:c7:8d:a5:a9:b5, 2015-01-01 00:03:03.545, -0.011, -0.009, 1, 0.061, 0.122, 0, -0.505, 0.467, -100.986, -48.706, -9.212, -22.834, 22.3, 0.63608, 0.00046, 0.00601, -0.77151,
 14:53:48.739,d3:c7:8d:a5:a9:b5, 2015-01-01 00:03:03.545, -0.011, -0.009, 1, 0.122, -0.854, 0, -0.5, 0.456, -100.986, -48.706, -9.212, -22.834, 22.3, 0.63608, 0.00046, 0.00601, -0.77151,
 14:53:48.771,d3:c7:8d:a5:a9:b5, 2015-01-01 00:03:03.545, -0.006, -0.009, 1, 0.122, -0.854, 0, -0.5, 0.45, -100.986, -48.706, -9.212, -22.834, 22.3, 0.63608, 0.00046, 0.00601, -0.77151,
 14:53:48.771,d3:c7:8d:a5:a9:b5, 2015-01-01 00:03:03.545, -0.004, -0.008, 0.999, 0.122, -0.732, 0, -0.5, 0.439, -100.986, -48.706, -9.212, -22.834, 22.3, 0.63608, 0.00046, 0.00601, -0.77151,
 14:53:48.771,d3:c7:8d:a5:a9:b5, 2015-01-01 00:03:03.545, -0.004, -0.008, 0.999, 0, 0, 0, -0.5, 0.439, -100.986, -48.706, -9.212, -22.834, 22.3, 0.63608, 0.00046, 0.00601, -0.77151,
 14:53:48.771,d3:c7:8d:a5:a9:b5, 2015-01-01 00:03:03.545, -0.008, -0.008, 0.999, 0, 0, 0, -0.5, 0.439, -100.986, -48.706, -9.212, -22.834, 22.3, 0.63608, 0.00046, 0.00601, -0.77151,
