Time,Device name,Chip Time(),Acceleration X(g),Acceleration Y(g),Acceleration Z(g),Angular velocity X(°/s),Angular velocity Y(°/s),Angular velocity Z(°/s),Angle X(°),Angle Y(°),Angle Z(°),Magnetic field X(ʯt),Magnetic field Y(ʯt),Magnetic field Z(ʯt),Temperature(℃),Quaternions 0(),Quaternions 1(),Quaternions 2(),Quaternions 3()
 14:42:40.076,d3:c7:8d:a5:a9:b5, 2015-01-01 00:01:17.105, -0.004, 0, 1.001, 0.061, 0.183, 0, -0.198, 0.154, -104.513, -43.610, -11.270, -25.382,, 0.61206, -9E-05, 0.00217, -0.79074,
 14:42:40.079,d3:c7:8d:a5:a9:b5, 2015-01-01 00:01:17.105, -0.005, 0, 1.001, 0.061, 0.183, 0, -0.198, 0.154, -104.507, -43.610, -11.270, -25.382,, 0.61206, -9E-05, 0.00217, -0.79074,
 14:42:40.079,d3:c7:8d:a5:a9:b5, 2015-01-01 00:01:17.105, -0.005, 0, 1.002, -0.061, 0.122, 0, -0.198, 0.154, -104.507, -43.610, -11.270, -25.382,, 0.61206, -9E-05, 0.00217, -0.79074,
 14:42:40.079,d3:c7:8d:a5:a9:b5, 2015-01-01 00:01:17.105, -0.005, 0, 1.002, -0.061, 0.122, 0, -0.198, 0.159, -104.507, -43.610, -11.270, -25.382,, 0.61206, -9E-05, 0.00217, -0.79074,
 14:42:40.103,d3:c7:8d:a5:a9:b5, 2015-01-01 00:01:17.105, -0.005, 0, 1, -0.061, 0.244, 0, -0.198, 0.159, -104.507, -43.610, -11.270, -25.382,, 0.61206, -9E-05, 0.00217, -0.79074,
 14:42:40.103,d3:c7:8d:a5:a9:b5, 2015-01-01 00:01:17.105, -0.007, 0, 1, -0.061, 0.244, 0, -0.192, 0.165, -104.507, -43.610, -11.270, -25.382,, 0.61206, -9E-05, 0.00217, -0.79074,
 14:42:40.103,d3:c7:8d:a5:a9:b5, 2015-01-01 00:01:17.105, -0.007, 0, 1.002, -0.061, 0.122, 0, -0.192, 0.165, -104.507, -43.610, -11.270, -25.382,, 0.61206, -9E-05, 0.00217, -0.79074,
 14:42:40.103,d3:c7:8d:a5:a9:b5, 2015-01-01 00:01:17.105, -0.005, 0, 1.002, -0.061, 0.122, 0, -0.192, 0.17, -104.507, -43.610, -11.270, -25.382,, 0.61206, -9E-05, 0.00217, -0.79074,
 14:42:40.133,d3:c7:8d:a5:a9:b5, 2015-01-01 00:01:17.105, -0.005, 0, 0.999, -0.061, 0, 0, -0.192, 0.17, -104.507, -43.610, -11.270, -25.382,, 0.61206, -9E-05, 0.00217, -0.79074,
 14:42:40.133,d3:c7:8d:a5:a9:b5, 2015-01-01 00:01:17.105, -0.003, 0, 0.999, -0.061, 0, 0, -0.192, 0.17, -104.502, -43.610, -11.270, -25.382,, 0.61206, -9E-05, 0.00217, -0.79074,
 14:42:40.133,d3:c7:8d:a5:a9:b5, 2015-01-01 00:01:17.105, -0.003, 0, 1.001, 0, 0.183, 0, -0.192, 0.17, -104.502, -43.610, -11.270, -25.382,, 0.61206, -9E-05, 0.00217, -0.79074,
 14:42:40.133,d3:c7:8d:a5:a9:b5, 2015-01-01 00:01:17.105, -0.004, 0, 1.001, 0, 0.183, 0, -0.192, 0.176, -104.502, -43.610, -11.270, -25.382,, 0.61206, -9E-05, 0.00217, -0.79074,
 14:42:40.194,d3:c7:8d:a5:a9:b5, 2015-01-01 00:01:17.105, -0.004, 0.001, 1, -0.061, 0.366, 0, -0.187, 0.176, -104.502, -43.610, -11.270, -25.382,, 0.61206, -9E-05, 0.00217, -0.79074,
 14:42:40.194,d3:c7:8d:a5:a9:b5, 2015-01-01 00:01:17.105, -0.004, 0.001, 1, -0.061, 0.366, 0, -0.187, 0.181, -104.502, -43.610, -11.270, -25.382,, 0.61206, -9E-05, 0.00217, -0.79074,
 14:42:40.194,d3:c7:8d:a5:a9:b5, 2015-01-01 00:01:17.105, -0.004, -0.001, 1, 0.061, 0.61, 0, -0.187, 0.187, -104.502, -43.610, -11.270, -25.382,, 0.61206, -9E-05, 0.00217, -0.79074,
 14:42:40.194,d3:c7:8d:a5:a9:b5, 2015-01-01 00:01:17.105, -0.007, -0.001, 1, 0.061, 0.61, 0, -0.187, 0.192, -104.502, -43.610, -11.270, -25.382,, 0.61206, -9E-05, 0.00217, -0.79074,
 14:42:40.224,d3:c7:8d:a5:a9:b5, 2015-01-01 00:01:17.105, -0.007, 0, 1.003, 0, 0.549, 0, -0.181, 0.198, -104.502, -43.610, -11.270, -25.382,, 0.61206, -9E-05, 0.00217, -0.79074,
 14:42:40.224,d3:c7:8d:a5:a9:b5, 2015-01-01 00:01:17.105, -0.006, 0, 1.003, 0, 0.549, 0, -0.181, 0.203, -104.502, -43.610, -11.270, -25.382,, 0.61206, -9E-05, 0.00217, -0.79074,
 14:42:40.224,d3:c7:8d:a5:a9:b5, 2015-01-01 00:01:17.105, -0.006, -0.001, 1, -0.122, 0.366, 0, -0.181, 0.209, -104.502, -43.610, -11.270, -25.382,, 0.61206, -9E-05, 0.00217, -0.79074,
 14:42:40.224,d3:c7:8d:a5:a9:b5, 2015-01-01 00:01:17.105, -0.005, -0.001, 1, -0.122, 0.366, 0, -0.181, 0.214, -104.496, -43.610, -11.270, -25.382,, 0.61206, -9E-05, 0.00217, -0.79074,
 14:42:40.253,d3:c7:8d:a5:a9:b5, 2015-01-01 00:01:17.105, -0.005, -0.001, 1, 0.061, 0.549, 0, -0.181, 0.22, -104.496, -43.610, -11.172, -25.480,, 0.61206, -9E-05, 0.00217, -0.79074,
 14:42:40.253,d3:c7:8d:a5:a9:b5, 2015-01-01 00:01:17.105, -0.009, -0.001, 1, 0.061, 0.549, 0, -0.181, 0.225, -104.496, -43.610, -11.172, -25.480,, 0.61206, -9E-05, 0.00217, -0.79074,
 14:42:40.253,d3:c7:8d:a5:a9:b5, 2015-01-01 00:01:17.105, -0.009, 0, 1.001, 0, 0.244, 0, -0.176, 0.231, -104.496, -43.610, -11.172, -25.480,, 0.61206, -9E-05, 0.00217, -0.79074,
 14:42:40.253,d3:c7:8d:a5:a9:b5, 2015-01-01 00:01:17.105, -0.005, 0, 1.001, 0, 0.244, 0, -0.176, 0.231, -104.496, -43.610, -11.172, -25.480,, 0.61206, -9E-05, 0.00217, -0.79074,
 14:42:40.314,d3:c7:8d:a5:a9:b5, 2015-01-01 00:01:17.105, -0.005, 0, 1.001, 0, -0.061, 0, -0.176, 0.236, -104.496, -43.610, -11.172, -25.480,, 0.61206, -9E-05, 0.00217, -0.79074,
 14:42:40.314,d3:c7:8d:a5:a9:b5, 2015-01-01 00:01:17.105, -0.003, 0, 1.001, 0, -0.061, 0, -0.176, 0.236, -104.496, -43.610, -11.172, -25.480,, 0.61206, -9E-05, 0.00217, -0.79074,
 14:42:40.314,d3:c7:8d:a5:a9:b5, 2015-01-01 00:01:17.105, -0.003, 0, 1, -0.061, 0.488, 0, -0.176, 0.236, -104.496, -43.610, -11.172, -25.480,, 0.61206, -9E-05, 0.00217, -0.79074,
 14:42:40.314,d3:c7:8d:a5:a9:b5, 2015-01-01 00:01:17.105, -0.009, 0, 1, -0.061, 0.488, 0, -0.176, 0.242, -104.496, -43.610, -11.172, -25.480,, 0.61206, -9E-05, 0.00217, -0.79074,
 14:42:40.344,d3:c7:8d:a5:a9:b5, 2015-01-01 00:01:17.105, -0.009, 0, 1, 0.061, 0.671, 0, -0.176, 0.247, -104.496, -43.610, -11.172, -25.480,, 0.61221, 0.00067, 0.00247, -0.79065,
 14:42:40.344,d3:c7:8d:a5:a9:b5, 2015-01-01 00:01:17.105, -0.01, 0, 1, 0.061, 0.671, 0, -0.17, 0.258, -104.491, -43.610, -11.172, -25.480,, 0.61221, 0.00067, 0.00247, -0.79065,
 14:42:40.344,d3:c7:8d:a5:a9:b5, 2015-01-01 00:01:17.105, -0.01, 0, 1.002, 0, 0.122, 0, -0.17, 0.264, -104.491, -43.610, -11.172, -25.480,, 0.61221, 0.00067, 0.00247, -0.79065,
 14:42:40.344,d3:c7:8d:a5:a9:b5, 2015-01-01 00:01:17.105, -0.007, 0, 1.002, 0, 0.122, 0, -0.17, 0.264, -104.491, -43.610, -11.172, -25.480,, 0.61221, 0.00067, 0.00247, -0.79065,
 14:42:40.374,d3:c7:8d:a5:a9:b5, 2015-01-01 00:01:17.105, -0.007, 0, 1, -0.061, -0.122, 0, -0.17, 0.264, -104.491, -43.610, -11.172, -25.480,, 0.61221, 0.00067, 0.00247, -0.79065,
 14:42:40.374,d3:c7:8d:a5:a9:b5, 2015-01-01 00:01:17.105, -0.006, 0, 1, -0.061, -0.122, 0, -0.17, 0.264, -104.491, -43.610, -11.172, -25.480,, 0.61221, 0.00067, 0.00247, -0.79065,
 14:42:40.374,d3:c7:8d:a5:a9:b5, 2015-01-01 00:01:17.105, -0.006, 0, 1, 0, -0.122, 0, -0.17, 0.264, -104.491, -43.610, -11.172, -25.480,, 0.61221, 0.00067, 0.00247, -0.79065,
 14:42:40.374,d3:c7:8d:a5:a9:b5, 2015-01-01 00:01:17.105, -0.006, 0, 1, 0, -0.122, 0, -0.165, 0.264, -104.491, -43.610, -11.172, -25.480,, 0.61221, 0.00067, 0.00247, -0.79065,
 14:42:40.433,d3:c7:8d:a5:a9:b5, 2015-01-01 00:01:17.465, -0.006, 0, 1.001, 0, -0.122, 0, -0.165, 0.264, -104.491, -43.610, -11.172, -25.480,, 0.61221, 0.00067, 0.00247, -0.79065,
 14:42:40.433,d3:c7:8d:a5:a9:b5, 2015-01-01 00:01:17.465, -0.005, 0, 1.001, 0, -0.122, 0, -0.165, 0.264, -104.491, -43.610, -11.172, -25.480,, 0.61221, 0.00067, 0.00247, -0.79065,
 14:42:40.433,d3:c7:8d:a5:a9:b5, 2015-01-01 00:01:17.465, -0.005, 0.001, 1.002, 0, -0.061, 0, -0.165, 0.264, -104.491, -43.610, -11.172, -25.480,, 0.61221, 0.00067, 0.00247, -0.79065,
 14:42:40.433,d3:c7:8d:a5:a9:b5, 2015-01-01 00:01:17.465, -0.005, 0.001, 1.002, 0, -0.061, 0, -0.165, 0.264, -104.485, -43.610, -11.172, -25.480,, 0.61221, 0.00067, 0.00247, -0.79065,
 14:42:40.464,d3:c7:8d:a5:a9:b5, 2015-01-01 00:01:17.465, -0.005, 0.001, 1.001, 0, 0.061, 0, -0.165, 0.264, -104.485, -43.610, -11.172, -25.480,, 0.61221, 0.00067, 0.00247, -0.79065,
 14:42:40.464,d3:c7:8d:a5:a9:b5, 2015-01-01 00:01:17.465, -0.007, 0.001, 1.001, 0, 0.061, 0, -0.159, 0.264, -104.485, -43.610, -11.172, -25.480,, 0.61221, 0.00067, 0.00247, -0.79065,
 14:42:40.464,d3:c7:8d:a5:a9:b5, 2015-01-01 00:01:17.465, -0.007, 0.001, 1.002, -0.061, 0.122, 0, -0.159, 0.264, -104.485, -43.610, -11.172, -25.480,, 0.61221, 0.00067, 0.00247, -0.79065,
 14:42:40.464,d3:c7:8d:a5:a9:b5, 2015-01-01 00:01:17.465, -0.008, 0.001, 1.002, -0.061, 0.122, 0, -0.159, 0.269, -104.485, -43.610, -11.172, -25.480,, 0.61221, 0.00067, 0.00247, -0.79065,
 14:42:40.523,d3:c7:8d:a5:a9:b5, 2015-01-01 00:01:17.465, -0.008, -0.001, 1.001, -0.183, -0.122, 0, -0.159, 0.269, -104.485, -43.610, -11.172, -25.480,, 0.61221, 0.00067, 0.00247, -0.79065,
 14:42:40.523,d3:c7:8d:a5:a9:b5, 2015-01-01 00:01:17.465, -0.006, -0.001, 1.001, -0.183, -0.122, 0, -0.159, 0.269, -104.485, -43.610, -11.172, -25.480,, 0.61221, 0.00067, 0.00247, -0.79065,
 14:42:40.523,d3:c7:8d:a5:a9:b5, 2015-01-01 00:01:17.465, -0.006, -0.001, 1, -0.122, -0.183, 0, -0.159, 0.264, -104.485, -43.610, -11.172, -25.480,, 0.61221, 0.00067, 0.00247, -0.79065,
 14:42:40.523,d3:c7:8d:a5:a9:b5, 2015-01-01 00:01:17.465, -0.007, -0.001, 1, -0.122, -0.183, 0, -0.165, 0.264, -104.485, -43.610, -11.172, -25.480,, 0.61221, 0.00067, 0.00247, -0.79065,
 14:42:40.553,d3:c7:8d:a5:a9:b5, 2015-01-01 00:01:17.465, -0.007, -0.001, 1.001, 0, -0.061, 0, -0.159, 0.264, -104.485, -43.610, -11.172, -25.480,, 0.61221, 0.00067, 0.00247, -0.79065,
 14:42:40.553,d3:c7:8d:a5:a9:b5, 2015-01-01 00:01:17.465, -0.008, -0.001, 1.001, 0, -0.061, 0, -0.159, 0.264, -104.485, -43.610, -11.172, -25.480,, 0.61221, 0.00067, 0.00247, -0.79065,
 14:42:40.553,d3:c7:8d:a5:a9:b5, 2015-01-01 00:01:17.465, -0.008, 0, 1.001, 0, -0.244, 0, -0.159, 0.264, -104.48, -43.610, -11.172, -25.480,, 0.61221, 0.00067, 0.00247, -0.79065,
 14:42:40.553,d3:c7:8d:a5:a9:b5, 2015-01-01 00:01:17.465, -0.006, 0, 1.001, 0, -0.244, 0, -0.159, 0.264, -104.48, -43.610, -11.172, -25.480,, 0.61221, 0.00067, 0.00247, -0.79065,
 14:42:40.584,d3:c7:8d:a5:a9:b5, 2015-01-01 00:01:17.465, -0.006, 0, 1.002, 0, -0.183, 0, -0.159, 0.264, -104.48, -43.610, -11.172, -25.480,, 0.61221, 0.00067, 0.00247, -0.79065,
 14:42:40.584,d3:c7:8d:a5:a9:b5, 2015-01-01 00:01:17.465, -0.004, 0, 1.002, 0, -0.183, 0, -0.159, 0.258, -104.48, -43.610, -11.172, -25.480,, 0.61221, 0.00067, 0.00247, -0.79065,
 14:42:40.584,d3:c7:8d:a5:a9:b5, 2015-01-01 00:01:17.465, -0.004, 0, 1, -0.122, -0.244, 0, -0.159, 0.258, -104.48, -43.610, -11.172, -25.480,, 0.61221, 0.00067, 0.00247, -0.79065,
 14:42:40.584,d3:c7:8d:a5:a9:b5, 2015-01-01 00:01:17.465, -0.002, 0, 1, -0.122, -0.244, 0, -0.159, 0.258, -104.48, -43.610, -11.172, -25.480,, 0.61221, 0.00067, 0.00247, -0.79065,
 14:42:40.613,d3:c7:8d:a5:a9:b5, 2015-01-01 00:01:17.465, -0.002, 0, 1.001, 0, 0, 0, -0.159, 0.258, -104.48, -43.512, -11.270, -25.382,, 0.61221, 0.00067, 0.00247, -0.79065,
 14:42:40.613,d3:c7:8d:a5:a9:b5, 2015-01-01 00:01:17.465, -0.006, 0, 1.001, 0, 0, 0, -0.154, 0.258, -104.48, -43.512, -11.270, -25.382,, 0.61221, 0.00067, 0.00247, -0.79065,
 14:42:40.613,d3:c7:8d:a5:a9:b5, 2015-01-01 00:01:17.465, -0.006, 0, 1.001, -0.061, 0.183, 0, -0.154, 0.258, -104.48, -43.512, -11.270, -25.382,, 0.61221, 0.00067, 0.00247, -0.79065,
 14:42:40.613,d3:c7:8d:a5:a9:b5, 2015-01-01 00:01:17.465, -0.005, 0, 1.001, -0.061, 0.183, 0, -0.154, 0.264, -104.48, -43.512, -11.270, -25.382,, 0.61221, 0.00067, 0.00247, -0.79065,
 14:42:40.674,d3:c7:8d:a5:a9:b5, 2015-01-01 00:01:17.465, -0.005, 0, 1.002, -0.061, 0.366, 0, -0.154, 0.264, -104.48, -43.512, -11.270, -25.382,, 0.61221, 0.00067, 0.00247, -0.79065,
 14:42:40.674,d3:c7:8d:a5:a9:b5, 2015-01-01 00:01:17.465, -0.009, 0, 1.002, -0.061, 0.366, 0, -0.154, 0.269, -104.48, -43.512, -11.270, -25.382,, 0.61221, 0.00067, 0.00247, -0.79065,
 14:42:40.674,d3:c7:8d:a5:a9:b5, 2015-01-01 00:01:17.465, -0.009, 0, 1.002, 0, 0.305, 0, -0.154, 0.275, -104.474, -43.512, -11.270, -25.382,, 0.61221, 0.00067, 0.00247, -0.79065,
 14:42:40.674,d3:c7:8d:a5:a9:b5, 2015-01-01 00:01:17.465, -0.01, 0, 1.002, 0, 0.305, 0, -0.154, 0.28, -104.474, -43.512, -11.270, -25.382,, 0.61221, 0.00067, 0.00247, -0.79065,
 14:42:40.705,d3:c7:8d:a5:a9:b5, 2015-01-01 00:01:17.465, -0.01, -0.001, 1.001, -0.244, -0.183, 0, -0.154, 0.275, -104.474, -43.512, -11.270, -25.382,, 0.61234, 0.00104, 0.00253, -0.79053,
 14:42:40.705,d3:c7:8d:a5:a9:b5, 2015-01-01 00:01:17.465, -0.005, -0.001, 1.001, -0.244, -0.183, 0, -0.154, 0.275, -104.474, -43.512, -11.270, -25.382,, 0.61234, 0.00104, 0.00253, -0.79053,
 14:42:40.705,d3:c7:8d:a5:a9:b5, 2015-01-01 00:01:17.465, -0.005, -0.001, 1, -0.122, -0.366, 0, -0.154, 0.275, -104.474, -43.512, -11.270, -25.382,, 0.61234, 0.00104, 0.00253, -0.79053,
 14:42:40.705,d3:c7:8d:a5:a9:b5, 2015-01-01 00:01:17.465, -0.004, -0.001, 1, -0.122, -0.366, 0, -0.154, 0.269, -104.474, -43.512, -11.270, -25.382,, 0.61234, 0.00104, 0.00253, -0.79053,
 14:42:40.734,d3:c7:8d:a5:a9:b5, 2015-01-01 00:01:17.465, -0.004, -0.001, 1, 0, 0.061, 0, -0.154, 0.269, -104.474, -43.512, -11.270, -25.382,, 0.61234, 0.00104, 0.00253, -0.79053,
 14:42:40.734,d3:c7:8d:a5:a9:b5, 2015-01-01 00:01:17.465, -0.008, -0.001, 1, 0, 0.061, 0, -0.154, 0.269, -104.474, -43.512, -11.270, -25.382,, 0.61234, 0.00104, 0.00253, -0.79053,
 14:42:40.734,d3:c7:8d:a5:a9:b5, 2015-01-01 00:01:17.465, -0.008, 0.001, 1.002, 0.061, 0.122, 0, -0.154, 0.275, -104.474, -43.512, -11.270, -25.382,, 0.61234, 0.00104, 0.00253, -0.79053,
 14:42:40.734,d3:c7:8d:a5:a9:b5, 2015-01-01 00:01:17.465, -0.009, 0.001, 1.002, 0.061, 0.122, 0, -0.154, 0.275, -104.474, -43.512, -11.270, -25.382,, 0.61234, 0.00104, 0.00253, -0.79053,
 14:42:40.795,d3:c7:8d:a5:a9:b5, 2015-01-01 00:01:17.820, -0.009, 0, 1.002, -0.122, -0.305, 0, -0.154, 0.275, -104.474, -43.512, -11.270, -25.382,, 0.61234, 0.00104, 0.00253, -0.79053,
 14:42:40.795,d3:c7:8d:a5:a9:b5, 2015-01-01 00:01:17.820, -0.005, 0, 1.002, -0.122, -0.305, 0, -0.154, 0.269, -104.474, -43.512, -11.270, -25.382,, 0.61234, 0.00104, 0.00253, -0.79053,
 14:42:40.795,d3:c7:8d:a5:a9:b5, 2015-01-01 00:01:17.820, -0.005, 0, 1, -0.122, -0.427, 0, -0.154, 0.269, -104.474, -43.512, -11.270, -25.382,, 0.61234, 0.00104, 0.00253, -0.79053,
 14:42:40.795,d3:c7:8d:a5:a9:b5, 2015-01-01 00:01:17.820, -0.005, 0, 1, -0.122, -0.427, 0, -0.154, 0.264, -104.469, -43.512, -11.270, -25.382,, 0.61234, 0.00104, 0.00253, -0.79053,
 14:42:40.823,d3:c7:8d:a5:a9:b5, 2015-01-01 00:01:17.820, -0.005, 0, 1, -0.122, -0.488, 0, -0.154, 0.258, -104.469, -43.512, -11.270, -25.382,, 0.61234, 0.00104, 0.00253, -0.79053,
 14:42:40.823,d3:c7:8d:a5:a9:b5, 2015-01-01 00:01:17.820, -0.004, 0, 1, -0.122, -0.488, 0, -0.154, 0.253, -104.469, -43.512, -11.270, -25.382,, 0.61234, 0.00104, 0.00253, -0.79053,
 14:42:40.823,d3:c7:8d:a5:a9:b5, 2015-01-01 00:01:17.820, -0.008, 0, 1.001, 0, -0.366, 0, -0.154, 0.253, -104.469, -43.512, -11.270, -25.382,, 0.61234, 0.00104, 0.00253, -0.79053,
 14:42:40.823,d3:c7:8d:a5:a9:b5, 2015-01-01 00:01:17.820, -0.008, 0, 1.002, 0, -0.244, 0, -0.154, 0.247, -104.469, -43.512, -11.270, -25.382,, 0.61234, 0.00104, 0.00253, -0.79053,
 14:42:40.855,d3:c7:8d:a5:a9:b5, 2015-01-01 00:01:17.820, -0.009, 0, 1.002, 0, -0.244, 0, -0.148, 0.247, -104.469, -43.512, -11.270, -25.382,, 0.61234, 0.00104, 0.00253, -0.79053,
 14:42:40.855,d3:c7:8d:a5:a9:b5, 2015-01-01 00:01:17.820, -0.009, 0, 1.001, -0.122, -0.671, 0, -0.148, 0.242, -104.469, -43.512, -11.270, -25.382,, 0.61234, 0.00104, 0.00253, -0.79053,
 14:42:40.855,d3:c7:8d:a5:a9:b5, 2015-01-01 00:01:17.820, -0.006, 0, 1.001, -0.122, -0.671, 0, -0.148, 0.236, -104.469, -43.512, -11.270, -25.382,, 0.61234, 0.00104, 0.00253, -0.79053,
 14:42:40.855,d3:c7:8d:a5:a9:b5, 2015-01-01 00:01:17.820, -0.006, -0.001, 1, -0.122, -0.977, 0, -0.148, 0.231, -104.469, -43.512, -11.270, -25.382,, 0.61234, 0.00104, 0.00253, -0.79053,
 14:42:40.915,d3:c7:8d:a5:a9:b5, 2015-01-01 00:01:17.820, -0.003, -0.001, 1, -0.122, -0.977, 0, -0.154, 0.225, -104.469, -43.512, -11.270, -25.382,, 0.61234, 0.00104, 0.00253, -0.79053,
 14:42:40.915,d3:c7:8d:a5:a9:b5, 2015-01-01 00:01:17.820, -0.003, 0, 1, -0.122, -0.793, -0.366, -0.154, 0.214, -104.469, -43.512, -11.270, -25.382,, 0.61234, 0.00104, 0.00253, -0.79053,
 14:42:40.915,d3:c7:8d:a5:a9:b5, 2015-01-01 00:01:17.820, -0.005, 0, 1, -0.122, -0.793, -0.366, -0.154, 0.209, -104.474, -43.512, -11.270, -25.382,, 0.61234, 0.00104, 0.00253, -0.79053,
 14:42:40.915,d3:c7:8d:a5:a9:b5, 2015-01-01 00:01:17.820, -0.005, 0, 1.001, -0.061, -0.549, -0.366, -0.154, 0.203, -104.474, -43.512, -11.270, -25.382,, 0.61234, 0.00104, 0.00253, -0.79053,
 14:42:40.944,d3:c7:8d:a5:a9:b5, 2015-01-01 00:01:17.820, -0.006, 0, 1.001, -0.061, -0.549, -0.366, -0.154, 0.198, -104.48, -43.512, -11.270, -25.382,, 0.61234, 0.00104, 0.00253, -0.79053,
 14:42:40.944,d3:c7:8d:a5:a9:b5, 2015-01-01 00:01:17.820, -0.006, 0.002, 1.001, -0.061, -0.671, -0.549, -0.154, 0.192, -104.485, -43.512, -11.270, -25.382,, 0.61234, 0.00104, 0.00253, -0.79053,
 14:42:40.944,d3:c7:8d:a5:a9:b5, 2015-01-01 00:01:17.820, -0.005, 0.002, 1.001, -0.061, -0.671, -0.549, -0.154, 0.187, -104.485, -43.512, -11.270, -25.382,, 0.61234, 0.00104, 0.00253, -0.79053,
 14:42:40.944,d3:c7:8d:a5:a9:b5, 2015-01-01 00:01:17.820, -0.005, 0.001, 1, -0.366, -1.099, -0.549, -0.154, 0.181, -104.491, -43.512, -11.270, -25.382,, 0.61234, 0.00104, 0.00253, -0.79053,
 14:42:40.973,d3:c7:8d:a5:a9:b5, 2015-01-01 00:01:17.820, -0.001, 0.001, 1, -0.366, -1.099, -0.549, -0.154, 0.17, -104.496, -43.708, -11.270, -25.382,, 0.61234, 0.00104, 0.00253, -0.79053,
 14:42:40.973,d3:c7:8d:a5:a9:b5, 2015-01-01 00:01:17.820, -0.001, 0, 1, -0.305, -1.099, -0.488, -0.159, 0.159, -104.502, -43.708, -11.270, -25.382,, 0.61234, 0.00104, 0.00253, -0.79053,
 14:42:40.973,d3:c7:8d:a5:a9:b5, 2015-01-01 00:01:17.820, 0, 0, 1, -0.305, -1.099, -0.488, -0.159, 0.148, -104.507, -43.708, -11.270, -25.382,, 0.61234, 0.00104, 0.00253, -0.79053,
 14:42:40.973,d3:c7:8d:a5:a9:b5, 2015-01-01 00:01:17.820, 0, -0.002, 1.001, -0.244, -0.488, -0.366, -0.159, 0.143, -104.513, -43.708, -11.270, -25.382,, 0.61234, 0.00104, 0.00253, -0.79053,
 14:42:41.033,d3:c7:8d:a5:a9:b5, 2015-01-01 00:01:17.820, -0.004, -0.002, 1.001, -0.244, -0.488, -0.366, -0.165, 0.137, -104.513, -43.708, -11.270, -25.382,, 0.61234, 0.00104, 0.00253, -0.79053,
 14:42:41.033,d3:c7:8d:a5:a9:b5, 2015-01-01 00:01:17.820, -0.004, 0, 1, 0, 0, -0.183, -0.165, 0.137, -104.518, -43.708, -11.270, -25.382,, 0.61234, 0.00104, 0.00253, -0.79053,
 14:42:41.033,d3:c7:8d:a5:a9:b5, 2015-01-01 00:01:17.820, -0.005, 0, 1, 0, 0, -0.183, -0.159, 0.137, -104.518, -43.708, -11.270, -25.382,, 0.61234, 0.00104, 0.00253, -0.79053,
 14:42:41.033,d3:c7:8d:a5:a9:b5, 2015-01-01 00:01:17.820, -0.005, 0, 1, -0.122, -0.183, -0.122, -0.159, 0.137, -104.518, -43.708, -11.270, -25.382,, 0.61234, 0.00104, 0.00253, -0.79053,
 14:42:41.063,d3:c7:8d:a5:a9:b5, 2015-01-01 00:01:17.820, -0.003, 0, 1, -0.122, -0.183, -0.122, -0.159, 0.137, -104.518, -43.708, -11.270, -25.382,, 0.61206, 6E-05, 0.00186, -0.79074,
 14:42:41.063,d3:c7:8d:a5:a9:b5, 2015-01-01 00:01:17.820, -0.003, -0.001, 1, -0.122, -0.366, -0.183, -0.159, 0.132, -104.524, -43.708, -11.270, -25.382,, 0.61206, 6E-05, 0.00186, -0.79074,
 14:42:41.063,d3:c7:8d:a5:a9:b5, 2015-01-01 00:01:17.820, -0.001, -0.001, 1, -0.122, -0.366, -0.183, -0.159, 0.132, -104.524, -43.708, -11.270, -25.382,, 0.61206, 6E-05, 0.00186, -0.79074,
 14:42:41.063,d3:c7:8d:a5:a9:b5, 2015-01-01 00:01:17.820, -0.001, 0, 1, -0.061, -0.305, -0.244, -0.159, 0.126, -104.524, -43.708, -11.270, -25.382,, 0.61206, 6E-05, 0.00186, -0.79074,
 14:42:41.096,d3:c7:8d:a5:a9:b5, 2015-01-01 00:01:17.820, 0, 0, 1, -0.061, -0.305, -0.244, -0.159, 0.126, -104.529, -43.708, -11.270, -25.382,, 0.61206, 6E-05, 0.00186, -0.79074,
 14:42:41.096,d3:c7:8d:a5:a9:b5, 2015-01-01 00:01:17.820, 0, 0.001, 1.001, -0.061, 0, -0.183, -0.159, 0.121, -104.529, -43.708, -11.270, -25.382,, 0.61206, 6E-05, 0.00186, -0.79074,
 14:42:41.096,d3:c7:8d:a5:a9:b5, 2015-01-01 00:01:17.820, -0.002, 0.001, 1.001, -0.061, 0, -0.183, -0.159, 0.121, -104.529, -43.708, -11.270, -25.382,, 0.61206, 6E-05, 0.00186, -0.79074,
 14:42:41.096,d3:c7:8d:a5:a9:b5, 2015-01-01 00:01:17.820, -0.002, 0.001, 1.001, -0.061, 0.305, -0.122, -0.159, 0.126, -104.529, -43.708, -11.270, -25.382,, 0.61206, 6E-05, 0.00186, -0.79074,
 14:42:41.153,d3:c7:8d:a5:a9:b5, 2015-01-01 00:01:18.180, -0.003, 0.001, 1.001, -0.061, 0.305, -0.122, -0.159, 0.126, -104.535, -43.708, -11.270, -25.382,, 0.61206, 6E-05, 0.00186, -0.79074,
 14:42:41.153,d3:c7:8d:a5:a9:b5, 2015-01-01 00:01:18.180, -0.003, 0, 1.001, -0.122, 0.122, 0, -0.159, 0.132, -104.535, -43.708, -11.270, -25.382,, 0.61206, 6E-05, 0.00186, -0.79074,
 14:42:41.153,d3:c7:8d:a5:a9:b5, 2015-01-01 00:01:18.180, -0.003, 0, 1.001, -0.122, 0.122, 0, -0.159, 0.132, -104.535, -43.708, -11.270, -25.382,, 0.61206, 6E-05, 0.00186, -0.79074,
 14:42:41.153,d3:c7:8d:a5:a9:b5, 2015-01-01 00:01:18.180, -0.003, -0.001, 0.999, -0.122, 0.061, 0, -0.159, 0.132, -104.529, -43.708, -11.270, -25.382,, 0.61206, 6E-05, 0.00186, -0.79074,
 14:42:41.183,d3:c7:8d:a5:a9:b5, 2015-01-01 00:01:18.180, -0.003, -0.001, 0.999, -0.122, 0.061, 0, -0.159, 0.132, -104.529, -43.708, -11.270, -25.382,, 0.61206, 6E-05, 0.00186, -0.79074,
 14:42:41.183,d3:c7:8d:a5:a9:b5, 2015-01-01 00:01:18.180, -0.003, 0, 1, 0, 0.183, -0.061, -0.159, 0.137, -104.529, -43.708, -11.270, -25.382,, 0.61206, 6E-05, 0.00186, -0.79074,
 14:42:41.183,d3:c7:8d:a5:a9:b5, 2015-01-01 00:01:18.180, -0.004, 0, 1, 0, 0.183, -0.061, -0.159, 0.137, -104.529, -43.708, -11.270, -25.382,, 0.61206, 6E-05, 0.00186, -0.79074,
 14:42:41.183,d3:c7:8d:a5:a9:b5, 2015-01-01 00:01:18.180, -0.004, -0.001, 1, -0.061, 0.122, 0, -0.159, 0.137, -104.529, -43.708, -11.270, -25.382,, 0.61206, 6E-05, 0.00186, -0.79074,
 14:42:41.214,d3:c7:8d:a5:a9:b5, 2015-01-01 00:01:18.180, -0.003, -0.001, 1, -0.061, 0.122, 0, -0.159, 0.143, -104.529, -43.708, -11.270, -25.382,, 0.61206, 6E-05, 0.00186, -0.79074,
 14:42:41.214,d3:c7:8d:a5:a9:b5, 2015-01-01 00:01:18.180, -0.003, -0.002, 1, 0, 0, 0, -0.159, 0.143, -104.529, -43.708, -11.270, -25.382,, 0.61206, 6E-05, 0.00186, -0.79074,
 14:42:41.214,d3:c7:8d:a5:a9:b5, 2015-01-01 00:01:18.180, -0.003, -0.002, 1, 0, 0, 0, -0.159, 0.143, -104.529, -43.708, -11.270, -25.382,, 0.61206, 6E-05, 0.00186, -0.79074,
 14:42:41.214,d3:c7:8d:a5:a9:b5, 2015-01-01 00:01:18.180, -0.003, 0, 1, 0.061, 0.244, 0, -0.154, 0.143, -104.529, -43.708, -11.270, -25.382,, 0.61206, 6E-05, 0.00186, -0.79074,
 14:42:41.274,d3:c7:8d:a5:a9:b5, 2015-01-01 00:01:18.180, -0.005, 0, 1, 0.061, 0.244, 0, -0.154, 0.148, -104.529, -43.708, -11.270, -25.382,, 0.61206, 6E-05, 0.00186, -0.79074,
 14:42:41.274,d3:c7:8d:a5:a9:b5, 2015-01-01 00:01:18.180, -0.005, 0.001, 1, -0.122, 0, 0, -0.154, 0.148, -104.529, -43.708, -11.270, -25.382,, 0.61206, 6E-05, 0.00186, -0.79074,
 14:42:41.274,d3:c7:8d:a5:a9:b5, 2015-01-01 00:01:18.180, -0.004, 0.001, 1, -0.122, 0, 0, -0.154, 0.148, -104.529, -43.708, -11.270, -25.382,, 0.61206, 6E-05, 0.00186, -0.79074,
 14:42:41.274,d3:c7:8d:a5:a9:b5, 2015-01-01 00:01:18.180, -0.004, 0, 1, 0, -0.244, -0.122, -0.154, 0.148, -104.529, -43.708, -11.270, -25.382,, 0.61206, 6E-05, 0.00186, -0.79074,
 14:42:41.333,d3:c7:8d:a5:a9:b5, 2015-01-01 00:01:18.180, -0.003, 0, 1, 0, -0.244, -0.122, -0.154, 0.143, -104.529, -43.708, -11.270, -25.382,, 0.61206, 6E-05, 0.00186, -0.79074,
 14:42:41.333,d3:c7:8d:a5:a9:b5, 2015-01-01 00:01:18.180, -0.003, 0.003, 1.003, 0, -0.427, -0.244, -0.154, 0.143, -104.535, -43.708, -11.270, -25.382,, 0.61206, 6E-05, 0.00186, -0.79074,
 14:42:41.333,d3:c7:8d:a5:a9:b5, 2015-01-01 00:01:18.180, -0.004, 0.003, 1.003, 0, -0.427, -0.244, -0.148, 0.137, -104.535, -43.708, -11.270, -25.382,, 0.61206, 6E-05, 0.00186, -0.79074,
 14:42:41.333,d3:c7:8d:a5:a9:b5, 2015-01-01 00:01:18.180, -0.004, 0.001, 1, -0.488, -0.61, -0.366, -0.154, 0.132, -104.54, -43.708, -11.270, -25.382,, 0.61206, 6E-05, 0.00186, -0.79074,
 14:42:41.365,d3:c7:8d:a5:a9:b5, 2015-01-01 00:01:18.180, -0.002, 0.001, 1, -0.488, -0.61, -0.366, -0.159, 0.126, -104.54, -43.610, -11.172, -25.382,, 0.61206, 6E-05, 0.00186, -0.79074,
 14:42:41.365,d3:c7:8d:a5:a9:b5, 2015-01-01 00:01:18.180, -0.002, -0.002, 1, -0.305, -0.61, -0.671, -0.159, 0.121, -104.546, -43.610, -11.172, -25.382,, 0.61206, 6E-05, 0.00186, -0.79074,
 14:42:41.365,d3:c7:8d:a5:a9:b5, 2015-01-01 00:01:18.180, -0.004, -0.002, 1, -0.305, -0.61, -0.671, -0.165, 0.115, -104.557, -43.610, -11.172, -25.382,, 0.61206, 6E-05, 0.00186, -0.79074,
 14:42:41.365,d3:c7:8d:a5:a9:b5, 2015-01-01 00:01:18.180, -0.004, 0, 1, -0.122, -0.549, -0.549, -0.165, 0.11, -104.562, -43.610, -11.172, -25.382,, 0.61206, 6E-05, 0.00186, -0.79074,
 14:42:41.394,d3:c7:8d:a5:a9:b5, 2015-01-01 00:01:18.180, -0.003, 0, 1, -0.122, -0.549, -0.549, -0.165, 0.104, -104.562, -43.610, -11.172, -25.382,, 0.61206, 6E-05, 0.00186, -0.79074,
 14:42:41.394,d3:c7:8d:a5:a9:b5, 2015-01-01 00:01:18.180, -0.003, -0.001, 1.001, -0.305, -0.61, -0.366, -0.165, 0.099, -104.568, -43.610, -11.172, -25.382,, 0.61206, 6E-05, 0.00186, -0.79074,
 14:42:41.394,d3:c7:8d:a5:a9:b5, 2015-01-01 00:01:18.180, 0, -0.001, 1.001, -0.305, -0.61, -0.366, -0.165, 0.093, -104.573, -43.610, -11.172, -25.382,, 0.61206, 6E-05, 0.00186, -0.79074,
 14:42:41.394,d3:c7:8d:a5:a9:b5, 2015-01-01 00:01:18.180, 0, 0, 1, -0.061, -0.427, -0.244, -0.165, 0.088, -104.573, -43.610, -11.172, -25.382,, 0.61206, 6E-05, 0.00186, -0.79074,
 14:42:41.423,d3:c7:8d:a5:a9:b5, 2015-01-01 00:01:18.180, 0, 0, 1, -0.061, -0.427, -0.244, -0.165, 0.088, -104.573, -43.610, -11.172, -25.382,, 0.61163, -0.00024, 0.00165, -0.79108,
 14:42:41.423,d3:c7:8d:a5:a9:b5, 2015-01-01 00:01:18.180, 0, 0, 0.999, -0.061, -0.122, 0, -0.165, 0.088, -104.573, -43.610, -11.172, -25.382,, 0.61163, -0.00024, 0.00165, -0.79108,
 14:42:41.423,d3:c7:8d:a5:a9:b5, 2015-01-01 00:01:18.180, 0, 0, 0.999, -0.061, -0.122, 0, -0.165, 0.082, -104.573, -43.610, -11.172, -25.382,, 0.61163, -0.00024, 0.00165, -0.79108,
 14:42:41.423,d3:c7:8d:a5:a9:b5, 2015-01-01 00:01:18.180, 0, 0, 1, -0.122, 0.061, 0, -0.165, 0.088, -104.573, -43.610, -11.172, -25.382,, 0.61163, -0.00024, 0.00165, -0.79108,
 14:42:41.484,d3:c7:8d:a5:a9:b5, 2015-01-01 00:01:18.180, 0, 0, 1, -0.122, 0.061, 0, -0.165, 0.088, -104.573, -43.610, -11.172, -25.382,, 0.61163, -0.00024, 0.00165, -0.79108,
 14:42:41.484,d3:c7:8d:a5:a9:b5, 2015-01-01 00:01:18.180, 0, 0.001, 0.999, -0.122, 0.244, 0.061, -0.165, 0.088, -104.573, -43.610, -11.172, -25.382,, 0.61163, -0.00024, 0.00165, -0.79108,
 14:42:41.484,d3:c7:8d:a5:a9:b5, 2015-01-01 00:01:18.180, -0.001, 0.001, 0.999, -0.122, 0.244, 0.061, -0.165, 0.093, -104.573, -43.610, -11.172, -25.382,, 0.61163, -0.00024, 0.00165, -0.79108,
 14:42:41.484,d3:c7:8d:a5:a9:b5, 2015-01-01 00:01:18.180, -0.001, 0, 1, -0.061, 0.366, 0.244, -0.165, 0.093, -104.568, -43.610, -11.172, -25.382,, 0.61163, -0.00024, 0.00165, -0.79108,
 14:42:41.513,d3:c7:8d:a5:a9:b5, 2015-01-01 00:01:18.535, -0.003, 0, 1, -0.061, 0.366, 0.244, -0.165, 0.099, -104.568, -43.610, -11.172, -25.382,, 0.61163, -0.00024, 0.00165, -0.79108,
 14:42:41.513,d3:c7:8d:a5:a9:b5, 2015-01-01 00:01:18.535, -0.003, 0, 1.001, -0.061, 0.305, 0.183, -0.165, 0.104, -104.568, -43.610, -11.172, -25.382,, 0.61163, -0.00024, 0.00165, -0.79108,
 14:42:41.513,d3:c7:8d:a5:a9:b5, 2015-01-01 00:01:18.535, -0.003, 0, 1.001, -0.061, 0.305, 0.183, -0.165, 0.104, -104.562, -43.610, -11.172, -25.382,, 0.61163, -0.00024, 0.00165, -0.79108,
 14:42:41.513,d3:c7:8d:a5:a9:b5, 2015-01-01 00:01:18.535, -0.003, 0, 0.999, 0, 0.122, 0.305, -0.165, 0.104, -104.562, -43.610, -11.172, -25.382,, 0.61163, -0.00024, 0.00165, -0.79108,
 14:42:41.544,d3:c7:8d:a5:a9:b5, 2015-01-01 00:01:18.535, -0.002, 0, 0.999, 0, 0.122, 0.305, -0.159, 0.11, -104.557, -43.610, -11.172, -25.382,, 0.61163, -0.00024, 0.00165, -0.79108,
 14:42:41.544,d3:c7:8d:a5:a9:b5, 2015-01-01 00:01:18.535, -0.002, -0.001, 1, -0.122, 0.183, 0.244, -0.165, 0.11, -104.557, -43.610, -11.172, -25.382,, 0.61163, -0.00024, 0.00165, -0.79108,
 14:42:41.544,d3:c7:8d:a5:a9:b5, 2015-01-01 00:01:18.535, -0.002, -0.001, 1, -0.122, 0.183, 0.244, -0.165, 0.11, -104.551, -43.610, -11.172, -25.382,, 0.61163, -0.00024, 0.00165, -0.79108,
 14:42:41.544,d3:c7:8d:a5:a9:b5, 2015-01-01 00:01:18.535, -0.002, -0.003, 1, 0.061, 0.427, 0.183, -0.159, 0.115, -104.551, -43.610, -11.172, -25.382,, 0.61163, -0.00024, 0.00165, -0.79108,
 14:42:41.603,d3:c7:8d:a5:a9:b5, 2015-01-01 00:01:18.535, -0.007, -0.003, 1, 0.061, 0.427, 0.183, -0.159, 0.121, -104.546, -43.610, -11.172, -25.382,, 0.61163, -0.00024, 0.00165, -0.79108,
 14:42:41.603,d3:c7:8d:a5:a9:b5, 2015-01-01 00:01:18.535, -0.007, 0.002, 1.001, 0.122, 0.122, 0.122, -0.159, 0.121, -104.546, -43.610, -11.172, -25.382,, 0.61163, -0.00024, 0.00165, -0.79108,
 14:42:41.603,d3:c7:8d:a5:a9:b5, 2015-01-01 00:01:18.535, -0.006, 0.002, 1.001, 0.122, 0.122, 0.122, -0.154, 0.121, -104.546, -43.610, -11.172, -25.382,, 0.61163, -0.00024, 0.00165, -0.79108,
 14:42:41.603,d3:c7:8d:a5:a9:b5, 2015-01-01 00:01:18.535, -0.006, 0, 1, -0.244, -0.549, 0.061, -0.159, 0.115, -104.546, -43.610, -11.172, -25.382,, 0.61163, -0.00024, 0.00165, -0.79108,
 14:42:41.633,d3:c7:8d:a5:a9:b5, 2015-01-01 00:01:18.535, -0.001, 0, 1, -0.244, -0.549, 0.061, -0.159, 0.115, -104.54, -43.610, -11.172, -25.382,, 0.61163, -0.00024, 0.00165, -0.79108,
 14:42:41.633,d3:c7:8d:a5:a9:b5, 2015-01-01 00:01:18.535, -0.001, 0, 1, -0.122, -0.854, 0, -0.159, 0.104, -104.54, -43.610, -11.172, -25.382,, 0.61163, -0.00024, 0.00165, -0.79108,
 14:42:41.633,d3:c7:8d:a5:a9:b5, 2015-01-01 00:01:18.535, 0, 0, 1, -0.122, -0.854, 0, -0.159, 0.099, -104.54, -43.610, -11.172, -25.382,, 0.61163, -0.00024, 0.00165, -0.79108,
 14:42:41.633,d3:c7:8d:a5:a9:b5, 2015-01-01 00:01:18.535, 0, 0, 1, -0.183, -0.549, 0, -0.159, 0.093, -104.54, -43.610, -11.172, -25.382,, 0.61163, -0.00024, 0.00165, -0.79108,
 14:42:41.665,d3:c7:8d:a5:a9:b5, 2015-01-01 00:01:18.535, 0.002, 0, 1, -0.183, -0.549, 0, -0.159, 0.088, -104.54, -43.610, -11.172, -25.382,, 0.61163, -0.00024, 0.00165, -0.79108,
 14:42:41.665,d3:c7:8d:a5:a9:b5, 2015-01-01 00:01:18.535, 0.002, 0, 1, -0.122, 0.061, 0.122, -0.159, 0.088, -104.54, -43.610, -11.172, -25.382,, 0.61163, -0.00024, 0.00165, -0.79108,
 14:42:41.665,d3:c7:8d:a5:a9:b5, 2015-01-01 00:01:18.535, 0, 0, 1, -0.122, 0.061, 0.122, -0.159, 0.088, -104.54, -43.610, -11.172, -25.382,, 0.61163, -0.00024, 0.00165, -0.79108,
 14:42:41.665,d3:c7:8d:a5:a9:b5, 2015-01-01 00:01:18.535, 0, -0.001, 1, -0.061, 0.61, 0.244, -0.159, 0.093, -104.535, -43.610, -11.172, -25.382,, 0.61163, -0.00024, 0.00165, -0.79108,
 14:42:41.723,d3:c7:8d:a5:a9:b5, 2015-01-01 00:01:18.535, -0.003, -0.001, 1, -0.061, 0.61, 0.244, -0.159, 0.099, -104.535, -43.610, -11.172, -25.382,, 0.61163, -0.00024, 0.00165, -0.79108,
 14:42:41.723,d3:c7:8d:a5:a9:b5, 2015-01-01 00:01:18.535, -0.003, 0, 1, 0, 0.61, 0.305, -0.159, 0.11, -104.529, -43.610, -11.172, -25.382,, 0.61163, -0.00024, 0.00165, -0.79108,
 14:42:41.723,d3:c7:8d:a5:a9:b5, 2015-01-01 00:01:18.535, -0.004, 0, 1, 0, 0.61, 0.305, -0.159, 0.115, -104.529, -43.610, -11.172, -25.382,, 0.61163, -0.00024, 0.00165, -0.79108,
 14:42:41.723,d3:c7:8d:a5:a9:b5, 2015-01-01 00:01:18.535, -0.004, -0.001, 0.999, -0.061, 0.427, 0.244, -0.159, 0.115, -104.524, -43.610, -11.172, -25.382,, 0.61163, -0.00024, 0.00165, -0.79108,
 14:42:41.753,d3:c7:8d:a5:a9:b5, 2015-01-01 00:01:18.535, -0.004, -0.001, 0.999, -0.061, 0.427, 0.244, -0.159, 0.121, -104.524, -43.610, -11.270, -25.284,, 0.61163, -0.00024, 0.00165, -0.79108,
 14:42:41.753,d3:c7:8d:a5:a9:b5, 2015-01-01 00:01:18.535, -0.006, 0, 1, 0.122, 0.305, 0.061, -0.159, 0.126, -104.518, -43.610, -11.270, -25.284,, 0.61163, -0.00024, 0.00165, -0.79108,
 14:42:41.753,d3:c7:8d:a5:a9:b5, 2015-01-01 00:01:18.535, -0.006, 0.001, 1.001, 0, 0, -0.061, -0.154, 0.126, -104.518, -43.610, -11.270, -25.284,, 0.61163, -0.00024, 0.00165, -0.79108,
 14:42:41.753,d3:c7:8d:a5:a9:b5, 2015-01-01 00:01:18.535, -0.004, 0.001, 1.001, 0, 0, -0.061, -0.154, 0.126, -104.518, -43.610, -11.270, -25.284,, 0.61163, -0.00024, 0.00165, -0.79108,
 14:42:41.785,d3:c7:8d:a5:a9:b5, 2015-01-01 00:01:18.535, -0.004, 0, 1, -0.244, -0.244, 0, -0.154, 0.126, -104.518, -43.610, -11.270, -25.284,, 0.61163, -0.00024, 0.00165, -0.79108,
 14:42:41.785,d3:c7:8d:a5:a9:b5, 2015-01-01 00:01:18.535, -0.003, 0, 1, -0.244, -0.244, 0, -0.159, 0.126, -104.518, -43.610, -11.270, -25.284,, 0.61163, -0.00024, 0.00165, -0.79108,
 14:42:41.785,d3:c7:8d:a5:a9:b5, 2015-01-01 00:01:18.535, -0.003, -0.002, 1, -0.122, -0.183, -0.061, -0.159, 0.121, -104.518, -43.610, -11.270, -25.284,, 0.61163, -0.00024, 0.00165, -0.79108,
 14:42:41.785,d3:c7:8d:a5:a9:b5, 2015-01-01 00:01:18.535, -0.006, -0.002, 1, -0.122, -0.183, -0.061, -0.159, 0.121, -104.518, -43.610, -11.270, -25.284,, 0.61163, -0.00024, 0.00165, -0.79108,
 14:42:41.845,d3:c7:8d:a5:a9:b5, 2015-01-01 00:01:18.535, -0.006, 0, 1, -0.061, -0.427, -0.122, -0.159, 0.121, -104.524, -43.610, -11.270, -25.284,, 0.61203, 0, 0.00177, -0.79077,
 14:42:41.845,d3:c7:8d:a5:a9:b5, 2015-01-01 00:01:18.535, -0.003, 0, 1, -0.061, -0.427, -0.122, -0.159, 0.115, -104.524, -43.610, -11.270, -25.284,, 0.61203, 0, 0.00177, -0.79077,
 14:42:41.845,d3:c7:8d:a5:a9:b5, 2015-01-01 00:01:18.535, -0.003, 0, 1.001, -0.061, -0.732, -0.183, -0.159, 0.11, -104.524, -43.610, -11.270, -25.284,, 0.61203, 0, 0.00177, -0.79077,
 14:42:41.845,d3:c7:8d:a5:a9:b5, 2015-01-01 00:01:18.535, 0, 0, 1.001, -0.061, -0.732, -0.183, -0.159, 0.104, -104.524, -43.610, -11.270, -25.284,, 0.61203, 0, 0.00177, -0.79077,
 14:42:41.873,d3:c7:8d:a5:a9:b5, 2015-01-01 00:01:18.925, 0, 0.001, 1.001, -0.061, -0.61, -0.122, -0.159, 0.099, -104.529, -43.610, -11.270, -25.284,, 0.61203, 0, 0.00177, -0.79077,
 14:42:41.873,d3:c7:8d:a5:a9:b5, 2015-01-01 00:01:18.925, 0, 0.001, 1.001, -0.061, -0.61, -0.122, -0.159, 0.093, -104.529, -43.610, -11.270, -25.284,, 0.61203, 0, 0.00177, -0.79077,
 14:42:41.873,d3:c7:8d:a5:a9:b5, 2015-01-01 00:01:18.925, 0, 0, 1, -0.183, -0.427, 0, -0.159, 0.088, -104.529, -43.610, -11.270, -25.284,, 0.61203, 0, 0.00177, -0.79077,
 14:42:41.873,d3:c7:8d:a5:a9:b5, 2015-01-01 00:01:18.925, -0.002, 0, 1, -0.183, -0.427, 0, -0.159, 0.082, -104.529, -43.610, -11.270, -25.284,, 0.61203, 0, 0.00177, -0.79077,
 14:42:41.904,d3:c7:8d:a5:a9:b5, 2015-01-01 00:01:18.925, -0.002, 0, 1, -0.122, -0.305, 0, -0.159, 0.082, -104.529, -43.610, -11.270, -25.284,, 0.61203, 0, 0.00177, -0.79077,
 14:42:41.904,d3:c7:8d:a5:a9:b5, 2015-01-01 00:01:18.925, -0.001, 0, 1, -0.122, -0.305, 0, -0.159, 0.077, -104.529, -43.610, -11.270, -25.284,, 0.61203, 0, 0.00177, -0.79077,
 14:42:41.904,d3:c7:8d:a5:a9:b5, 2015-01-01 00:01:18.925, -0.001, -0.001, 1, -0.183, -0.366, 0, -0.159, 0.077, -104.529, -43.610, -11.270, -25.284,, 0.61203, 0, 0.00177, -0.79077,
 14:42:41.904,d3:c7:8d:a5:a9:b5, 2015-01-01 00:01:18.925, -0.001, -0.001, 1, -0.183, -0.366, 0, -0.159, 0.071, -104.529, -43.610, -11.270, -25.284,, 0.61203, 0, 0.00177, -0.79077,
 14:42:41.963,d3:c7:8d:a5:a9:b5, 2015-01-01 00:01:18.925, -0.001, 0, 1, 0, 0, 0, -0.159, 0.071, -104.529, -43.610, -11.270, -25.284,, 0.61203, 0, 0.00177, -0.79077,
 14:42:41.963,d3:c7:8d:a5:a9:b5, 2015-01-01 00:01:18.925, -0.007, 0, 1, 0, 0, 0, -0.159, 0.071, -104.524, -43.610, -11.270, -25.284,, 0.61203, 0, 0.00177, -0.79077,
 14:42:41.963,d3:c7:8d:a5:a9:b5, 2015-01-01 00:01:18.925, -0.007, 0, 1, -0.244, -0.061, 0.061, -0.159, 0.071, -104.524, -43.610, -11.270, -25.284,, 0.61203, 0, 0.00177, -0.79077,
 14:42:41.963,d3:c7:8d:a5:a9:b5, 2015-01-01 00:01:18.925, -0.007, 0, 1, -0.244, -0.061, 0.061, -0.159, 0.071, -104.524, -43.610, -11.270, -25.284,, 0.61203, 0, 0.00177, -0.79077,
 14:42:41.994,d3:c7:8d:a5:a9:b5, 2015-01-01 00:01:18.925, -0.007, -0.001, 1, -0.427, -1.038, 0.061, -0.165, 0.066, -104.524, -43.610, -11.270, -25.284,, 0.61203, 0, 0.00177, -0.79077,
 14:42:41.994,d3:c7:8d:a5:a9:b5, 2015-01-01 00:01:18.925, -0.002, -0.001, 1, -0.427, -1.038, 0.061, -0.17, 0.055, -104.524, -43.610, -11.270, -25.284,, 0.61203, 0, 0.00177, -0.79077,
 14:42:41.994,d3:c7:8d:a5:a9:b5, 2015-01-01 00:01:18.925, -0.002, -0.001, 0.999, -0.488, -1.526, -0.122, -0.17, 0.044, -104.524, -43.610, -11.270, -25.284,, 0.61203, 0, 0.00177, -0.79077,
 14:42:41.994,d3:c7:8d:a5:a9:b5, 2015-01-01 00:01:18.925, 0.003, -0.001, 0.999, -0.488, -1.526, -0.122, -0.176, 0.027, -104.524, -43.610, -11.270, -25.284,, 0.61203, 0, 0.00177, -0.79077,
 14:42:42.023,d3:c7:8d:a5:a9:b5, 2015-01-01 00:01:18.925, 0.003, -0.001, 0.999, -0.366, -1.343, -0.061, -0.181, 0.016, -104.524, -43.610, -11.270, -25.284,, 0.61203, 0, 0.00177, -0.79077,
 14:42:42.023,d3:c7:8d:a5:a9:b5, 2015-01-01 00:01:18.925, 0.004, -0.001, 0.999, -0.366, -1.343, -0.061, -0.181, 0.005, -104.524, -43.610, -11.270, -25.284,, 0.61203, 0, 0.00177, -0.79077,
 14:42:42.023,d3:c7:8d:a5:a9:b5, 2015-01-01 00:01:18.925, 0.004, 0, 1, 0, -0.61, 0, -0.181, 0, -104.524, -43.610, -11.270, -25.284,, 0.61203, 0, 0.00177, -0.79077,
 14:42:42.023,d3:c7:8d:a5:a9:b5, 2015-01-01 00:01:18.925, 0.001, 0, 1, 0, -0.61, 0, -0.181, -0.005, -104.524, -43.610, -11.270, -25.284,, 0.61203, 0, 0.00177, -0.79077,
 14:42:42.083,d3:c7:8d:a5:a9:b5, 2015-01-01 00:01:18.925, 0.001, 0.001, 0.999, -0.183, -0.061, 0, -0.181, -0.005, -104.524, -43.610, -11.270, -25.284,, 0.61203, 0, 0.00177, -0.79077,
 14:42:42.083,d3:c7:8d:a5:a9:b5, 2015-01-01 00:01:18.925, 0.001, 0.001, 0.999, -0.183, -0.061, 0, -0.181, -0.005, -104.524, -43.610, -11.270, -25.284,, 0.61203, 0, 0.00177, -0.79077,
 14:42:42.083,d3:c7:8d:a5:a9:b5, 2015-01-01 00:01:18.925, 0.001, -0.002, 0.999, -0.183, 0.122, 0, -0.181, -0.005, -104.524, -43.610, -11.270, -25.284,, 0.61203, 0, 0.00177, -0.79077,
 14:42:42.083,d3:c7:8d:a5:a9:b5, 2015-01-01 00:01:18.925, -0.004, -0.002, 0.999, -0.183, 0.122, 0, -0.187, -0.005, -104.524, -43.610, -11.270, -25.284,, 0.61203, 0, 0.00177, -0.79077,
 14:42:42.114,d3:c7:8d:a5:a9:b5, 2015-01-01 00:01:18.925, -0.004, -0.002, 0.999, -0.061, 0, -0.061, -0.187, -0.005, -104.524, -43.708, -11.270, -25.186,, 0.61203, 0, 0.00177, -0.79077,
 14:42:42.114,d3:c7:8d:a5:a9:b5, 2015-01-01 00:01:18.925, -0.003, -0.002, 0.999, -0.061, 0, -0.061, -0.187, -0.005, -104.524, -43.708, -11.270, -25.186,, 0.61203, 0, 0.00177, -0.79077,
 14:42:42.114,d3:c7:8d:a5:a9:b5, 2015-01-01 00:01:18.925, -0.003, -0.002, 1, -0.244, -0.366, -0.305, -0.187, -0.005, -104.524, -43.708, -11.270, -25.186,, 0.61203, 0, 0.00177, -0.79077,
 14:42:42.114,d3:c7:8d:a5:a9:b5, 2015-01-01 00:01:18.925, -0.001, -0.002, 1, -0.244, -0.366, -0.305, -0.187, -0.011, -104.524, -43.708, -11.270, -25.186,, 0.61203, 0, 0.00177, -0.79077,
 14:42:42.145,d3:c7:8d:a5:a9:b5, 2015-01-01 00:01:18.925, -0.001, -0.001, 1, -0.244, -0.366, -0.427, -0.187, -0.011, -104.529, -43.708, -11.270, -25.186,, 0.61203, 0, 0.00177, -0.79077,
 14:42:42.145,d3:c7:8d:a5:a9:b5, 2015-01-01 00:01:18.925, -0.002, -0.001, 1, -0.244, -0.366, -0.427, -0.192, -0.016, -104.529, -43.708, -11.270, -25.186,, 0.61203, 0, 0.00177, -0.79077,
 14:42:42.145,d3:c7:8d:a5:a9:b5, 2015-01-01 00:01:18.925, -0.002, -0.002, 0.999, -0.183, -0.61, -0.549, -0.192, -0.022, -104.535, -43.708, -11.270, -25.186,, 0.61203, 0, 0.00177, -0.79077,
 14:42:42.145,d3:c7:8d:a5:a9:b5, 2015-01-01 00:01:18.925, 0.001, -0.002, 0.999, -0.183, -0.61, -0.549, -0.192, -0.027, -104.54, -43.708, -11.270, -25.186,, 0.61203, 0, 0.00177, -0.79077,
 14:42:42.203,d3:c7:8d:a5:a9:b5, 2015-01-01 00:01:18.925, 0.001, 0, 1, -0.122, -0.732, -0.488, -0.192, -0.033, -104.546, -43.708, -11.270, -25.186,, 0.61191, -0.00119, 0.00122, -0.79086,
 14:42:42.203,d3:c7:8d:a5:a9:b5, 2015-01-01 00:01:18.925, 0.007, 0, 1, -0.122, -0.732, -0.488, -0.192, -0.038, -104.551, -43.708, -11.270, -25.186,, 0.61191, -0.00119, 0.00122, -0.79086,
 14:42:42.203,d3:c7:8d:a5:a9:b5, 2015-01-01 00:01:18.925, 0.007, 0, 0.998, -0.244, -0.122, -0.244, -0.198, -0.038, -104.551, -43.708, -11.270, -25.186,, 0.61191, -0.00119, 0.00122, -0.79086,
 14:42:42.203,d3:c7:8d:a5:a9:b5, 2015-01-01 00:01:18.925, 0.006, 0, 0.998, -0.244, -0.122, -0.244, -0.198, -0.038, -104.551, -43.708, -11.270, -25.186,, 0.61191, -0.00119, 0.00122, -0.79086,
 14:42:42.234,d3:c7:8d:a5:a9:b5, 2015-01-01 00:01:19.280, 0.006, -0.002, 0.999, 0.122, 0.854, 0, -0.198, -0.033, -104.551, -43.708, -11.270, -25.186,, 0.61191, -0.00119, 0.00122, -0.79086,
 14:42:42.234,d3:c7:8d:a5:a9:b5, 2015-01-01 00:01:19.280, 0, -0.002, 0.999, 0.122, 0.854, 0, -0.192, -0.022, -104.551, -43.708, -11.270, -25.186,, 0.61191, -0.00119, 0.00122, -0.79086,
 14:42:42.234,d3:c7:8d:a5:a9:b5, 2015-01-01 00:01:19.280, 0, 0.001, 1, 0.305, 1.343, 0.183, -0.192, -0.011, -104.546, -43.708, -11.270, -25.186,, 0.61191, -0.00119, 0.00122, -0.79086,
 14:42:42.234,d3:c7:8d:a5:a9:b5, 2015-01-01 00:01:19.280, -0.004, 0.001, 1, 0.305, 1.343, 0.183, -0.187, 0, -104.546, -43.708, -11.270, -25.186,, 0.61191, -0.00119, 0.00122, -0.79086,
 14:42:42.264,d3:c7:8d:a5:a9:b5, 2015-01-01 00:01:19.280, -0.004, 0, 1, 0.061, 0.916, 0.122, -0.187, 0.005, -104.54, -43.708, -11.270, -25.186,, 0.61191, -0.00119, 0.00122, -0.79086,
 14:42:42.264,d3:c7:8d:a5:a9:b5, 2015-01-01 00:01:19.280, -0.003, 0, 1, 0.061, 0.916, 0.122, -0.181, 0.016, -104.54, -43.708, -11.270, -25.186,, 0.61191, -0.00119, 0.00122, -0.79086,
 14:42:42.264,d3:c7:8d:a5:a9:b5, 2015-01-01 00:01:19.280, -0.003, -0.002, 0.998, -0.061, 0.183, 0, -0.181, 0.016, -104.54, -43.708, -11.270, -25.186,, 0.61191, -0.00119, 0.00122, -0.79086,
 14:42:42.264,d3:c7:8d:a5:a9:b5, 2015-01-01 00:01:19.280, 0, -0.002, 0.998, -0.061, 0.183, 0, -0.181, 0.022, -104.535, -43.708, -11.270, -25.186,, 0.61191, -0.00119, 0.00122, -0.79086,
 14:42:42.323,d3:c7:8d:a5:a9:b5, 2015-01-01 00:01:19.280, 0, -0.001, 1, 0, 0.366, 0, -0.181, 0.022, -104.535, -43.708, -11.270, -25.186,, 0.61191, -0.00119, 0.00122, -0.79086,
 14:42:42.323,d3:c7:8d:a5:a9:b5, 2015-01-01 00:01:19.280, -0.002, -0.001, 1, 0, 0.366, 0, -0.181, 0.027, -104.535, -43.708, -11.270, -25.186,, 0.61191, -0.00119, 0.00122, -0.79086,
 14:42:42.323,d3:c7:8d:a5:a9:b5, 2015-01-01 00:01:19.280, -0.002, 0, 0.999, -0.122, 0.366, 0.122, -0.181, 0.033, -104.535, -43.708, -11.270, -25.186,, 0.61191, -0.00119, 0.00122, -0.79086,
 14:42:42.323,d3:c7:8d:a5:a9:b5, 2015-01-01 00:01:19.280, -0.002, 0, 0.999, -0.122, 0.366, 0.122, -0.181, 0.033, -104.529, -43.708, -11.270, -25.186,, 0.61191, -0.00119, 0.00122, -0.79086,
 14:42:42.354,d3:c7:8d:a5:a9:b5, 2015-01-01 00:01:19.280, -0.002, -0.004, 0.999, 0, 0.183, 0, -0.181, 0.038, -104.529, -43.708, -11.270, -25.186,, 0.61191, -0.00119, 0.00122, -0.79086,
 14:42:42.355,d3:c7:8d:a5:a9:b5, 2015-01-01 00:01:19.280, -0.006, -0.004, 0.999, 0, 0.183, 0, -0.181, 0.038, -104.529, -43.708, -11.270, -25.186,, 0.61191, -0.00119, 0.00122, -0.79086,
 14:42:42.355,d3:c7:8d:a5:a9:b5, 2015-01-01 00:01:19.280, -0.006, 0.001, 1.001, 0.122, -0.183, 0, -0.181, 0.038, -104.524, -43.708, -11.270, -25.186,, 0.61191, -0.00119, 0.00122, -0.79086,
 14:42:42.355,d3:c7:8d:a5:a9:b5, 2015-01-01 00:01:19.280, -0.004, 0.001, 1.001, 0.122, -0.183, 0, -0.176, 0.033, -104.524, -43.708, -11.270, -25.186,, 0.61191, -0.00119, 0.00122, -0.79086,
 14:42:42.383,d3:c7:8d:a5:a9:b5, 2015-01-01 00:01:19.280, -0.004, 0, 0.999, -0.366, -1.221, 0, -0.181, 0.022, -104.524, -43.708, -11.270, -25.186,, 0.61191, -0.00119, 0.00122, -0.79086,
 14:42:42.383,d3:c7:8d:a5:a9:b5, 2015-01-01 00:01:19.280, 0.002, 0, 0.999, -0.366, -1.221, 0, -0.181, 0.011, -104.518, -43.708, -11.270, -25.186,, 0.61191, -0.00119, 0.00122, -0.79086,
 14:42:42.383,d3:c7:8d:a5:a9:b5, 2015-01-01 00:01:19.280, 0.002, 0, 1, -0.122, -1.038, -0.244, -0.181, 0, -104.524, -43.708, -11.270, -25.186,, 0.61191, -0.00119, 0.00122, -0.79086,
 14:42:42.383,d3:c7:8d:a5:a9:b5, 2015-01-01 00:01:19.280, 0.001, 0, 1, -0.122, -1.038, -0.244, -0.181, 0, -104.524, -43.708, -11.270, -25.186,, 0.61191, -0.00119, 0.00122, -0.79086,
 14:42:42.444,d3:c7:8d:a5:a9:b5, 2015-01-01 00:01:19.280, 0.001, 0.001, 1, -0.427, -0.671, -0.244, -0.187, -0.005, -104.524, -43.708, -11.270, -25.186,, 0.61191, -0.00119, 0.00122, -0.79086,
 14:42:42.444,d3:c7:8d:a5:a9:b5, 2015-01-01 00:01:19.280, 0.002, 0.001, 1, -0.427, -0.671, -0.244, -0.192, -0.016, -104.524, -43.708, -11.270, -25.186,, 0.61191, -0.00119, 0.00122, -0.79086,
 14:42:42.444,d3:c7:8d:a5:a9:b5, 2015-01-01 00:01:19.280, 0.002, -0.001, 0.999, -0.427, -0.427, -0.122, -0.192, -0.016, -104.524, -43.708, -11.270, -25.186,, 0.61191, -0.00119, 0.00122, -0.79086,
 14:42:42.444,d3:c7:8d:a5:a9:b5, 2015-01-01 00:01:19.280, 0.001, -0.001, 0.999, -0.427, -0.427, -0.122, -0.198, -0.022, -104.524, -43.708, -11.270, -25.186,, 0.61191, -0.00119, 0.00122, -0.79086,
 14:42:42.475,d3:c7:8d:a5:a9:b5, 2015-01-01 00:01:19.280, 0.001, -0.002, 0.999, -0.183, 0, 0, -0.198, -0.022, -104.524, -43.806, -11.172, -25.284,, 0.61191, -0.00119, 0.00122, -0.79086,
 14:42:42.475,d3:c7:8d:a5:a9:b5, 2015-01-01 00:01:19.280, -0.001, -0.002, 0.999, -0.183, 0, 0, -0.198, -0.022, -104.524, -43.806, -11.172, -25.284,, 0.61191, -0.00119, 0.00122, -0.79086,
 14:42:42.475,d3:c7:8d:a5:a9:b5, 2015-01-01 00:01:19.280, -0.001, -0.002, 0.999, -0.244, 0.122, 0.061, -0.198, -0.022, -104.524, -43.806, -11.172, -25.284,, 0.61191, -0.00119, 0.00122, -0.79086,
 14:42:42.475,d3:c7:8d:a5:a9:b5, 2015-01-01 00:01:19.280, 0, -0.002, 0.999, -0.244, 0.122, 0.061, -0.203, -0.016, -104.524, -43.806, -11.172, -25.284,, 0.61191, -0.00119, 0.00122, -0.79086,
 14:42:42.504,d3:c7:8d:a5:a9:b5, 2015-01-01 00:01:19.280, 0, -0.002, 0.999, 0, -0.122, 0, -0.203, -0.022, -104.518, -43.806, -11.172, -25.284,, 0.61191, -0.00119, 0.00122, -0.79086,
 14:42:42.504,d3:c7:8d:a5:a9:b5, 2015-01-01 00:01:19.280, 0.001, -0.002, 0.999, 0, -0.122, 0, -0.198, -0.022, -104.518, -43.806, -11.172, -25.284,, 0.61191, -0.00119, 0.00122, -0.79086,
 14:42:42.504,d3:c7:8d:a5:a9:b5, 2015-01-01 00:01:19.280, 0.001, 0, 0.999, -0.183, -0.244, 0.061, -0.203, -0.022, -104.518, -43.806, -11.172, -25.284,, 0.61191, -0.00119, 0.00122, -0.79086,
 14:42:42.504,d3:c7:8d:a5:a9:b5, 2015-01-01 00:01:19.280, 0.001, 0, 0.999, -0.183, -0.244, 0.061, -0.203, -0.027, -104.513, -43.806, -11.172, -25.284,, 0.61191, -0.00119, 0.00122, -0.79086,
 14:42:42.564,d3:c7:8d:a5:a9:b5, 2015-01-01 00:01:19.280, 0.001, -0.001, 0.997, -0.061, 0.061, 0, -0.203, -0.022, -104.513, -43.806, -11.172, -25.284,, 0.61203, -0.00125, 0.00125, -0.79077,
 14:42:42.564,d3:c7:8d:a5:a9:b5, 2015-01-01 00:01:19.280, -0.002, -0.001, 0.997, -0.061, 0.061, 0, -0.203, -0.022, -104.513, -43.806, -11.172, -25.284,, 0.61203, -0.00125, 0.00125, -0.79077,
 14:42:42.564,d3:c7:8d:a5:a9:b5, 2015-01-01 00:01:19.280, -0.002, 0, 1, -0.122, 0.061, -0.061, -0.203, -0.022, -104.513, -43.806, -11.172, -25.284,, 0.61203, -0.00125, 0.00125, -0.79077,
 14:42:42.564,d3:c7:8d:a5:a9:b5, 2015-01-01 00:01:19.280, 0, 0, 1, -0.122, 0.061, -0.061, -0.203, -0.022, -104.513, -43.806, -11.172, -25.284,, 0.61203, -0.00125, 0.00125, -0.79077,
 14:42:42.593,d3:c7:8d:a5:a9:b5, 2015-01-01 00:01:19.640, 0, 0, 1, -0.305, -0.305, -0.122, -0.203, -0.027, -104.513, -43.806, -11.172, -25.284,, 0.61203, -0.00125, 0.00125, -0.79077,
 14:42:42.593,d3:c7:8d:a5:a9:b5, 2015-01-01 00:01:19.640, 0.002, 0, 1, -0.305, -0.305, -0.122, -0.209, -0.027, -104.513, -43.806, -11.172, -25.284,, 0.61203, -0.00125, 0.00125, -0.79077,
 14:42:42.593,d3:c7:8d:a5:a9:b5, 2015-01-01 00:01:19.640, 0.002, -0.001, 0.998, -0.183, 0, -0.305, -0.209, -0.027, -104.513, -43.806, -11.172, -25.284,, 0.61203, -0.00125, 0.00125, -0.79077,
 14:42:42.593,d3:c7:8d:a5:a9:b5, 2015-01-01 00:01:19.640, 0, -0.001, 0.998, -0.183, 0, -0.305, -0.209, -0.027, -104.518, -43.806, -11.172, -25.284,, 0.61203, -0.00125, 0.00125, -0.79077,
 14:42:42.623,d3:c7:8d:a5:a9:b5, 2015-01-01 00:01:19.640, 0, -0.001, 1, -0.122, 0.244, -0.305, -0.209, -0.027, -104.518, -43.806, -11.172, -25.284,, 0.61203, -0.00125, 0.00125, -0.79077,
 14:42:42.623,d3:c7:8d:a5:a9:b5, 2015-01-01 00:01:19.640, -0.001, -0.001, 1, -0.122, 0.244, -0.305, -0.209, -0.022, -104.518, -43.806, -11.172, -25.284,, 0.61203, -0.00125, 0.00125, -0.79077,
 14:42:42.623,d3:c7:8d:a5:a9:b5, 2015-01-01 00:01:19.640, 0, -0.002, 0.999, -0.183, 0.183, -0.305, -0.209, -0.022, -104.524, -43.806, -11.172, -25.284,, 0.61203, -0.00125, 0.00125, -0.79077,
 14:42:42.623,d3:c7:8d:a5:a9:b5, 2015-01-01 00:01:19.640, 0, -0.002, 0.999, -0.122, 0.061, -0.305, -0.209, -0.022, -104.524, -43.806, -11.172, -25.284,, 0.61203, -0.00125, 0.00125, -0.79077,
 14:42:42.684,d3:c7:8d:a5:a9:b5, 2015-01-01 00:01:19.640, 0.002, -0.002, 0.999, -0.122, 0.061, -0.305, -0.214, -0.016, -104.529, -43.806, -11.172, -25.284,, 0.61203, -0.00125, 0.00125, -0.79077,
 14:42:42.684,d3:c7:8d:a5:a9:b5, 2015-01-01 00:01:19.640, 0.002, -0.003, 1, -0.061, 0.671, -0.183, -0.214, -0.016, -104.529, -43.806, -11.172, -25.284,, 0.61203, -0.00125, 0.00125, -0.79077,
 14:42:42.684,d3:c7:8d:a5:a9:b5, 2015-01-01 00:01:19.640, 0, -0.003, 1, -0.061, 0.671, -0.183, -0.214, -0.005, -104.529, -43.806, -11.172, -25.284,, 0.61203, -0.00125, 0.00125, -0.79077,
 14:42:42.684,d3:c7:8d:a5:a9:b5, 2015-01-01 00:01:19.640, 0, 0, 0.998, 0, 0.488, -0.061, -0.214, 0, -104.529, -43.806, -11.172, -25.284,, 0.61203, -0.00125, 0.00125, -0.79077,
 14:42:42.714,d3:c7:8d:a5:a9:b5, 2015-01-01 00:01:19.640, 0.001, 0, 0.998, 0, 0.488, -0.061, -0.209, 0, -104.529, -43.806, -11.172, -25.284,, 0.61203, -0.00125, 0.00125, -0.79077,
 14:42:42.714,d3:c7:8d:a5:a9:b5, 2015-01-01 00:01:19.640, 0.001, -0.002, 0.999, 0, 0.549, 0, -0.209, 0, -104.529, -43.806, -11.172, -25.284,, 0.61203, -0.00125, 0.00125, -0.79077,
 14:42:42.714,d3:c7:8d:a5:a9:b5, 2015-01-01 00:01:19.640, -0.002, -0.002, 0.999, 0, 0.549, 0, -0.209, 0.005, -104.529, -43.806, -11.172, -25.284,, 0.61203, -0.00125, 0.00125, -0.79077,
 14:42:42.714,d3:c7:8d:a5:a9:b5, 2015-01-01 00:01:19.640, -0.002, 0, 0.999, -0.061, 0.549, 0, -0.209, 0.011, -104.529, -43.806, -11.172, -25.284,, 0.61203, -0.00125, 0.00125, -0.79077,
 14:42:42.774,d3:c7:8d:a5:a9:b5, 2015-01-01 00:01:19.640, -0.001, 0, 0.999, -0.061, 0.549, 0, -0.209, 0.016, -104.524, -43.806, -11.172, -25.284,, 0.61203, -0.00125, 0.00125, -0.79077,
 14:42:42.774,d3:c7:8d:a5:a9:b5, 2015-01-01 00:01:19.640, -0.001, -0.001, 1, 0, 0.305, 0, -0.209, 0.022, -104.524, -43.806, -11.172, -25.284,, 0.61203, -0.00125, 0.00125, -0.79077,
 14:42:42.774,d3:c7:8d:a5:a9:b5, 2015-01-01 00:01:19.640, -0.001, -0.001, 1, 0, 0.305, 0, -0.209, 0.027, -104.524, -43.806, -11.172, -25.284,, 0.61203, -0.00125, 0.00125, -0.79077,
 14:42:42.774,d3:c7:8d:a5:a9:b5, 2015-01-01 00:01:19.640, -0.001, 0, 1, -0.061, 0.183, 0, -0.209, 0.027, -104.524, -43.806, -11.172, -25.284,, 0.61203, -0.00125, 0.00125, -0.79077,
 14:42:42.804,d3:c7:8d:a5:a9:b5, 2015-01-01 00:01:19.640, 0, 0, 1, -0.061, 0.183, 0, -0.209, 0.027, -104.524, -43.708, -11.270, -25.284,, 0.61203, -0.00125, 0.00125, -0.79077,
 14:42:42.804,d3:c7:8d:a5:a9:b5, 2015-01-01 00:01:19.640, 0, -0.001, 0.999, -0.061, 0.244, 0, -0.209, 0.033, -104.524, -43.708, -11.270, -25.284,, 0.61203, -0.00125, 0.00125, -0.79077,
 14:42:42.804,d3:c7:8d:a5:a9:b5, 2015-01-01 00:01:19.640, -0.001, -0.001, 0.999, -0.061, 0.244, 0, -0.209, 0.033, -104.524, -43.708, -11.270, -25.284,, 0.61203, -0.00125, 0.00125, -0.79077,
 14:42:42.804,d3:c7:8d:a5:a9:b5, 2015-01-01 00:01:19.640, -0.001, -0.003, 0.999, -0.122, 0.305, 0, -0.209, 0.038, -104.524, -43.708, -11.270, -25.284,, 0.61203, -0.00125, 0.00125, -0.79077,
 14:42:42.835,d3:c7:8d:a5:a9:b5, 2015-01-01 00:01:19.640, -0.003, -0.003, 0.999, -0.122, 0.305, 0, -0.209, 0.038, -104.524, -43.708, -11.270, -25.284,, 0.61203, -0.00125, 0.00125, -0.79077,
 14:42:42.835,d3:c7:8d:a5:a9:b5, 2015-01-01 00:01:19.640, -0.003, -0.002, 0.999, -0.061, 0.061, 0, -0.209, 0.044, -104.524, -43.708, -11.270, -25.284,, 0.61203, -0.00125, 0.00125, -0.79077,
 14:42:42.835,d3:c7:8d:a5:a9:b5, 2015-01-01 00:01:19.640, 0, -0.002, 0.999, -0.061, 0.061, 0, -0.209, 0.044, -104.524, -43.708, -11.270, -25.284,, 0.61203, -0.00125, 0.00125, -0.79077,
 14:42:42.835,d3:c7:8d:a5:a9:b5, 2015-01-01 00:01:19.640, 0, -0.001, 1, -0.122, 0.061, 0, -0.209, 0.044, -104.524, -43.708, -11.270, -25.284,, 0.61203, -0.00125, 0.00125, -0.79077,
 14:42:42.894,d3:c7:8d:a5:a9:b5, 2015-01-01 00:01:19.640, -0.001, -0.001, 1, -0.122, 0.061, 0, -0.209, 0.044, -104.524, -43.708, -11.270, -25.284,, 0.612, -0.00079, 0.00168, -0.7908,
 14:42:42.894,d3:c7:8d:a5:a9:b5, 2015-01-01 00:01:19.640, -0.001, -0.001, 0.999, 0, 0.305, -0.061, -0.209, 0.044, -104.524, -43.708, -11.270, -25.284,, 0.612, -0.00079, 0.00168, -0.7908,
 14:42:42.894,d3:c7:8d:a5:a9:b5, 2015-01-01 00:01:19.640, -0.005, -0.001, 0.999, 0, 0.305, -0.061, -0.209, 0.049, -104.524, -43.708, -11.270, -25.284,, 0.612, -0.00079, 0.00168, -0.7908,
 14:42:42.894,d3:c7:8d:a5:a9:b5, 2015-01-01 00:01:19.640, -0.005, 0, 0.999, -0.061, 0, -0.122, -0.209, 0.049, -104.524, -43.708, -11.270, -25.284,, 0.612, -0.00079, 0.00168, -0.7908,
 14:42:42.923,d3:c7:8d:a5:a9:b5, 2015-01-01 00:01:19.965, -0.002, 0, 0.999, -0.061, 0, -0.122, -0.209, 0.049, -104.529, -43.708, -11.270, -25.284,, 0.612, -0.00079, 0.00168, -0.7908,
 14:42:42.923,d3:c7:8d:a5:a9:b5, 2015-01-01 00:01:19.965, -0.002, -0.001, 1, -0.122, -0.61, -0.183, -0.209, 0.049, -104.529, -43.708, -11.270, -25.284,, 0.612, -0.00079, 0.00168, -0.7908,
 14:42:42.923,d3:c7:8d:a5:a9:b5, 2015-01-01 00:01:19.965, 0, -0.001, 1, -0.122, -0.61, -0.183, -0.209, 0.044, -104.529, -43.708, -11.270, -25.284,, 0.612, -0.00079, 0.00168, -0.7908,
 14:42:42.923,d3:c7:8d:a5:a9:b5, 2015-01-01 00:01:19.965, 0, -0.001, 0.999, -0.183, -0.61, -0.244, -0.209, 0.038, -104.535, -43.708, -11.270, -25.284,, 0.612, -0.00079, 0.00168, -0.7908,
 14:42:42.953,d3:c7:8d:a5:a9:b5, 2015-01-01 00:01:19.965, 0.002, -0.001, 0.999, -0.183, -0.61, -0.244, -0.209, 0.033, -104.535, -43.708, -11.270, -25.284,, 0.612, -0.00079, 0.00168, -0.7908,
 14:42:42.953,d3:c7:8d:a5:a9:b5, 2015-01-01 00:01:19.965, 0.002, -0.002, 1, -0.183, -0.061, -0.244, -0.209, 0.027, -104.535, -43.708, -11.270, -25.284,, 0.612, -0.00079, 0.00168, -0.7908,
 14:42:42.953,d3:c7:8d:a5:a9:b5, 2015-01-01 00:01:19.965, 0, -0.002, 1, -0.183, -0.061, -0.244, -0.209, 0.027, -104.535, -43.708, -11.270, -25.284,, 0.612, -0.00079, 0.00168, -0.7908,
 14:42:42.953,d3:c7:8d:a5:a9:b5, 2015-01-01 00:01:19.965, 0, -0.001, 0.999, -0.122, 0.488, -0.122, -0.214, 0.027, -104.54, -43.708, -11.270, -25.284,, 0.612, -0.00079, 0.00168, -0.7908,
 14:42:43.014,d3:c7:8d:a5:a9:b5, 2015-01-01 00:01:19.965, -0.002, -0.001, 0.999, -0.122, 0.488, -0.122, -0.214, 0.033, -104.54, -43.708, -11.270, -25.284,, 0.612, -0.00079, 0.00168, -0.7908,
 14:42:43.014,d3:c7:8d:a5:a9:b5, 2015-01-01 00:01:19.965, -0.002, -0.001, 1, -0.061, 0.366, -0.122, -0.214, 0.038, -104.54, -43.708, -11.270, -25.284,, 0.612, -0.00079, 0.00168, -0.7908,
 14:42:43.014,d3:c7:8d:a5:a9:b5, 2015-01-01 00:01:19.965, -0.001, -0.001, 1, -0.061, 0.366, -0.122, -0.214, 0.044, -104.54, -43.708, -11.270, -25.284,, 0.612, -0.00079, 0.00168, -0.7908,
 14:42:43.014,d3:c7:8d:a5:a9:b5, 2015-01-01 00:01:19.965, -0.001, -0.002, 1, -0.183, 0.305, -0.122, -0.214, 0.044, -104.54, -43.708, -11.270, -25.284,, 0.612, -0.00079, 0.00168, -0.7908,
 14:42:43.073,d3:c7:8d:a5:a9:b5, 2015-01-01 00:01:19.965, 0, -0.002, 1, -0.183, 0.305, -0.122, -0.214, 0.049, -104.54, -43.708, -11.270, -25.284,, 0.612, -0.00079, 0.00168, -0.7908,
 14:42:43.073,d3:c7:8d:a5:a9:b5, 2015-01-01 00:01:19.965, 0, -0.002, 0.998, 0, 0.427, -0.122, -0.214, 0.049, -104.54, -43.708, -11.270, -25.284,, 0.612, -0.00079, 0.00168, -0.7908,
 14:42:43.073,d3:c7:8d:a5:a9:b5, 2015-01-01 00:01:19.965, -0.001, -0.002, 0.998, 0, 0.427, -0.122, -0.214, 0.055, -104.54, -43.708, -11.270, -25.284,, 0.612, -0.00079, 0.00168, -0.7908,
 14:42:43.073,d3:c7:8d:a5:a9:b5, 2015-01-01 00:01:19.965, -0.001, -0.002, 1, 0.061, 0.61, -0.061, -0.214, 0.06, -104.54, -43.708, -11.270, -25.284,, 0.612, -0.00079, 0.00168, -0.7908,
 14:42:43.075,d3:c7:8d:a5:a9:b5, 2015-01-01 00:01:19.965, -0.002, -0.002, 1, 0.061, 0.61, -0.061, -0.209, 0.066, -104.54, -43.708, -11.270, -25.284,, 0.612, -0.00079, 0.00168, -0.7908,
 14:42:43.075,d3:c7:8d:a5:a9:b5, 2015-01-01 00:01:19.965, -0.002, 0, 1, 0.061, 0.549, 0, -0.209, 0.071, -104.54, -43.708, -11.270, -25.284,, 0.612, -0.00079, 0.00168, -0.7908,
 14:42:43.075,d3:c7:8d:a5:a9:b5, 2015-01-01 00:01:19.965, 0, 0, 1, 0.061, 0.549, 0, -0.209, 0.077, -104.54, -43.708, -11.270, -25.284,, 0.612, -0.00079, 0.00168, -0.7908,
 14:42:43.075,d3:c7:8d:a5:a9:b5, 2015-01-01 00:01:19.965, 0, 0, 1, 0, 0.549, 0, -0.209, 0.082, -104.54, -43.708, -11.270, -25.284,, 0.612, -0.00079, 0.00168, -0.7908,
 14:42:43.134,d3:c7:8d:a5:a9:b5, 2015-01-01 00:01:19.965, -0.001, 0, 1, 0, 0.549, 0, -0.209, 0.088, -104.54, -43.708, -11.270, -25.284,, 0.612, -0.00079, 0.00168, -0.7908,
 14:42:43.134,d3:c7:8d:a5:a9:b5, 2015-01-01 00:01:19.965, -0.001, -0.001, 1, 0, 0.732, 0, -0.209, 0.099, -104.54, -43.708, -11.270, -25.284,, 0.612, -0.00079, 0.00168, -0.7908,
 14:42:43.134,d3:c7:8d:a5:a9:b5, 2015-01-01 00:01:19.965, -0.003, -0.001, 1, 0, 0.732, 0, -0.209, 0.104, -104.535, -43.708, -11.270, -25.284,, 0.612, -0.00079, 0.00168, -0.7908,
 14:42:43.134,d3:c7:8d:a5:a9:b5, 2015-01-01 00:01:19.965, -0.003, -0.001, 0.999, 0.061, 0.549, 0, -0.203, 0.11, -104.535, -43.708, -11.270, -25.284,, 0.612, -0.00079, 0.00168, -0.7908,
 14:42:43.164,d3:c7:8d:a5:a9:b5, 2015-01-01 00:01:19.965, -0.003, -0.001, 0.999, 0.061, 0.549, 0, -0.203, 0.115, -104.535, -43.610, -11.172, -25.186,, 0.612, -0.00079, 0.00168, -0.7908,
 14:42:43.164,d3:c7:8d:a5:a9:b5, 2015-01-01 00:01:19.965, -0.003, -0.001, 1, 0.122, 0.366, 0, -0.203, 0.115, -104.535, -43.610, -11.172, -25.186,, 0.612, -0.00079, 0.00168, -0.7908,
 14:42:43.164,d3:c7:8d:a5:a9:b5, 2015-01-01 00:01:19.965, -0.005, -0.001, 1, 0.122, 0.366, 0, -0.198, 0.121, -104.535, -43.610, -11.172, -25.186,, 0.612, -0.00079, 0.00168, -0.7908,
 14:42:43.164,d3:c7:8d:a5:a9:b5, 2015-01-01 00:01:19.965, -0.005, -0.002, 1, 0.061, 0.122, 0, -0.198, 0.121, -104.535, -43.610, -11.172, -25.186,, 0.612, -0.00079, 0.00168, -0.7908,
 14:42:43.194,d3:c7:8d:a5:a9:b5, 2015-01-01 00:01:19.965, -0.003, -0.002, 1, 0.061, 0.122, 0, -0.198, 0.121, -104.535, -43.610, -11.172, -25.186,, 0.612, -0.00079, 0.00168, -0.7908,
 14:42:43.194,d3:c7:8d:a5:a9:b5, 2015-01-01 00:01:19.965, -0.003, -0.001, 1, 0.183, -0.061, 0, -0.192, 0.121, -104.529, -43.610, -11.172, -25.186,, 0.612, -0.00079, 0.00168, -0.7908,
 14:42:43.194,d3:c7:8d:a5:a9:b5, 2015-01-01 00:01:19.965, -0.002, -0.001, 1, 0.183, -0.061, 0, -0.192, 0.121, -104.529, -43.610, -11.172, -25.186,, 0.612, -0.00079, 0.00168, -0.7908,
 14:42:43.194,d3:c7:8d:a5:a9:b5, 2015-01-01 00:01:19.965, -0.002, -0.001, 0.999, 0.061, 0, 0, -0.192, 0.121, -104.529, -43.610, -11.172, -25.186,, 0.612, -0.00079, 0.00168, -0.7908,
 14:42:43.253,d3:c7:8d:a5:a9:b5, 2015-01-01 00:01:19.965, 0, -0.001, 0.999, 0.061, 0, 0, -0.192, 0.121, -104.529, -43.610, -11.172, -25.186,, 0.61197, -0.00015, 0.00198, -0.79083,
 14:42:43.253,d3:c7:8d:a5:a9:b5, 2015-01-01 00:01:19.965, 0, 0, 1, 0.061, 0.305, 0, -0.187, 0.126, -104.529, -43.610, -11.172, -25.186,, 0.61197, -0.00015, 0.00198, -0.79083,
 14:42:43.253,d3:c7:8d:a5:a9:b5, 2015-01-01 00:01:19.965, -0.001, 0, 1, 0.061, 0.305, 0, -0.187, 0.126, -104.529, -43.610, -11.172, -25.186,, 0.61197, -0.00015, 0.00198, -0.79083,
 14:42:43.253,d3:c7:8d:a5:a9:b5, 2015-01-01 00:01:19.965, -0.001, 0, 1.001, 0, 0.549, 0, -0.187, 0.132, -104.524, -43.610, -11.172, -25.186,, 0.61197, -0.00015, 0.00198, -0.79083,
 14:42:43.284,d3:c7:8d:a5:a9:b5, 2015-01-01 00:01:20.325, -0.002, 0, 1.001, 0, 0.549, 0, -0.187, 0.137, -104.524, -43.610, -11.172, -25.186,, 0.61197, -0.00015, 0.00198, -0.79083,
 14:42:43.284,d3:c7:8d:a5:a9:b5, 2015-01-01 00:01:20.325, -0.002, 0, 0.999, 0, 0.671, 0, -0.187, 0.148, -104.524, -43.610, -11.172, -25.186,, 0.61197, -0.00015, 0.00198, -0.79083,
 14:42:43.284,d3:c7:8d:a5:a9:b5, 2015-01-01 00:01:20.325, -0.003, 0, 0.999, 0, 0.671, 0, -0.187, 0.154, -104.524, -43.610, -11.172, -25.186,, 0.61197, -0.00015, 0.00198, -0.79083,
 14:42:43.284,d3:c7:8d:a5:a9:b5, 2015-01-01 00:01:20.325, -0.003, -0.001, 1, 0.061, 0.732, 0.305, -0.181, 0.159, -104.524, -43.610, -11.172, -25.186,, 0.61197, -0.00015, 0.00198, -0.79083,
 14:42:43.314,d3:c7:8d:a5:a9:b5, 2015-01-01 00:01:20.325, -0.005, -0.001, 1, 0.061, 0.732, 0.305, -0.181, 0.165, -104.518, -43.610, -11.172, -25.186,, 0.61197, -0.00015, 0.00198, -0.79083,
 14:42:43.314,d3:c7:8d:a5:a9:b5, 2015-01-01 00:01:20.325, -0.005, 0.001, 1, 0.061, 0.61, 0.183, -0.181, 0.17, -104.518, -43.610, -11.172, -25.186,, 0.61197, -0.00015, 0.00198, -0.79083,
 14:42:43.314,d3:c7:8d:a5:a9:b5, 2015-01-01 00:01:20.325, -0.005, 0.001, 1, 0.061, 0.61, 0.183, -0.181, 0.176, -104.513, -43.610, -11.172, -25.186,, 0.61197, -0.00015, 0.00198, -0.79083,
 14:42:43.314,d3:c7:8d:a5:a9:b5, 2015-01-01 00:01:20.325, -0.005, -0.001, 1, -0.061, 0.305, 0.061, -0.181, 0.181, -104.513, -43.610, -11.172, -25.186,, 0.61197, -0.00015, 0.00198, -0.79083,
 14:42:43.374,d3:c7:8d:a5:a9:b5, 2015-01-01 00:01:20.325, -0.008, -0.001, 1, -0.061, 0.305, 0.061, -0.181, 0.187, -104.513, -43.610, -11.172, -25.186,, 0.61197, -0.00015, 0.00198, -0.79083,
 14:42:43.374,d3:c7:8d:a5:a9:b5, 2015-01-01 00:01:20.325, -0.008, -0.001, 1, 0, 0, 0, -0.176, 0.187, -104.513, -43.610, -11.172, -25.186,, 0.61197, -0.00015, 0.00198, -0.79083,
 14:42:43.374,d3:c7:8d:a5:a9:b5, 2015-01-01 00:01:20.325, -0.005, -0.001, 1, 0, 0, 0, -0.176, 0.187, -104.513, -43.610, -11.172, -25.186,, 0.61197, -0.00015, 0.00198, -0.79083,
 14:42:43.374,d3:c7:8d:a5:a9:b5, 2015-01-01 00:01:20.325, -0.005, -0.001, 1, -0.183, -0.427, 0, -0.181, 0.181, -104.513, -43.610, -11.172, -25.186,, 0.61197, -0.00015, 0.00198, -0.79083,
 14:42:43.403,d3:c7:8d:a5:a9:b5, 2015-01-01 00:01:20.325, -0.003, -0.001, 1, -0.183, -0.427, 0, -0.181, 0.176, -104.513, -43.610, -11.172, -25.186,, 0.61197, -0.00015, 0.00198, -0.79083,
 14:42:43.403,d3:c7:8d:a5:a9:b5, 2015-01-01 00:01:20.325, -0.003, -0.002, 1, -0.122, -0.427, 0, -0.181, 0.176, -104.513, -43.610, -11.172, -25.186,, 0.61197, -0.00015, 0.00198, -0.79083,
 14:42:43.403,d3:c7:8d:a5:a9:b5, 2015-01-01 00:01:20.325, -0.002, -0.002, 1, -0.122, -0.427, 0, -0.181, 0.17, -104.513, -43.610, -11.172, -25.186,, 0.61197, -0.00015, 0.00198, -0.79083,
 14:42:43.403,d3:c7:8d:a5:a9:b5, 2015-01-01 00:01:20.325, -0.002, -0.001, 1, -0.122, -0.183, -0.061, -0.181, 0.17, -104.513, -43.610, -11.172, -25.186,, 0.61197, -0.00015, 0.00198, -0.79083,
 14:42:43.434,d3:c7:8d:a5:a9:b5, 2015-01-01 00:01:20.325, -0.003, -0.001, 1, -0.122, -0.183, -0.061, -0.181, 0.165, -104.513, -43.610, -11.172, -25.186,, 0.61197, -0.00015, 0.00198, -0.79083,
 14:42:43.434,d3:c7:8d:a5:a9:b5, 2015-01-01 00:01:20.325, -0.003, -0.001, 1, 0, -0.122, -0.061, -0.181, 0.165, -104.513, -43.610, -11.172, -25.186,, 0.61197, -0.00015, 0.00198, -0.79083,
 14:42:43.434,d3:c7:8d:a5:a9:b5, 2015-01-01 00:01:20.325, -0.002, -0.001, 1, 0, -0.122, -0.061, -0.181, 0.165, -104.513, -43.610, -11.172, -25.186,, 0.61197, -0.00015, 0.00198, -0.79083,
 14:42:43.434,d3:c7:8d:a5:a9:b5, 2015-01-01 00:01:20.325, -0.002, 0, 1.001, -0.061, -0.061, 0, -0.181, 0.165, -104.513, -43.610, -11.172, -25.186,, 0.61197, -0.00015, 0.00198, -0.79083,
 14:42:43.493,d3:c7:8d:a5:a9:b5, 2015-01-01 00:01:20.325, -0.003, 0, 1.001, -0.061, -0.061, 0, -0.181, 0.165, -104.507, -43.610, -11.172, -25.186,, 0.61197, -0.00015, 0.00198, -0.79083,
 14:42:43.493,d3:c7:8d:a5:a9:b5, 2015-01-01 00:01:20.325, -0.003, 0, 1, -0.061, -0.122, -0.061, -0.181, 0.165, -104.507, -43.610, -11.172, -25.186,, 0.61197, -0.00015, 0.00198, -0.79083,
 14:42:43.493,d3:c7:8d:a5:a9:b5, 2015-01-01 00:01:20.325, -0.003, 0, 1, -0.061, -0.122, -0.061, -0.181, 0.165, -104.507, -43.610, -11.172, -25.186,, 0.61197, -0.00015, 0.00198, -0.79083,
 14:42:43.493,d3:c7:8d:a5:a9:b5, 2015-01-01 00:01:20.325, -0.003, 0, 1, -0.183, -0.244, -0.061, -0.181, 0.159, -104.507, -43.610, -11.172, -25.186,, 0.61197, -0.00015, 0.00198, -0.79083,
 14:42:43.523,d3:c7:8d:a5:a9:b5, 2015-01-01 00:01:20.325, -0.001, 0, 1, -0.183, -0.244, -0.061, -0.181, 0.159, -104.507, -43.512, -11.172, -25.382,, 0.61197, -0.00015, 0.00198, -0.79083,
 14:42:43.523,d3:c7:8d:a5:a9:b5, 2015-01-01 00:01:20.325, -0.001, -0.001, 1, -0.183, -0.122, -0.061, -0.181, 0.159, -104.507, -43.512, -11.172, -25.382,, 0.61197, -0.00015, 0.00198, -0.79083,
 14:42:43.523,d3:c7:8d:a5:a9:b5, 2015-01-01 00:01:20.325, -0.004, -0.001, 1, -0.183, -0.122, -0.061, -0.187, 0.154, -104.507, -43.512, -11.172, -25.382,, 0.61197, -0.00015, 0.00198, -0.79083,
 14:42:43.523,d3:c7:8d:a5:a9:b5, 2015-01-01 00:01:20.325, -0.004, -0.002, 1, 0, 0, -0.061, -0.181, 0.154, -104.507, -43.512, -11.172, -25.382,, 0.61197, -0.00015, 0.00198, -0.79083,
 14:42:43.555,d3:c7:8d:a5:a9:b5, 2015-01-01 00:01:20.325, -0.004, 0, 1.001, -0.061, -0.244, 0, -0.181, 0.154, -104.507, -43.512, -11.172, -25.382,, 0.61197, -0.00015, 0.00198, -0.79083,
 14:42:43.555,d3:c7:8d:a5:a9:b5, 2015-01-01 00:01:20.325, 0, 0, 1.001, -0.061, -0.244, 0, -0.181, 0.154, -104.507, -43.512, -11.172, -25.382,, 0.61197, -0.00015, 0.00198, -0.79083,
 14:42:43.555,d3:c7:8d:a5:a9:b5, 2015-01-01 00:01:20.325, 0, -0.002, 1, -0.183, -0.122, 0.061, -0.181, 0.154, -104.507, -43.512, -11.172, -25.382,, 0.61197, -0.00015, 0.00198, -0.79083,
 14:42:43.555,d3:c7:8d:a5:a9:b5, 2015-01-01 00:01:20.325, -0.001, -0.002, 1, -0.183, -0.122, 0.061, -0.187, 0.148, -104.507, -43.512, -11.172, -25.382,, 0.61197, -0.00015, 0.00198, -0.79083,
 14:42:43.614,d3:c7:8d:a5:a9:b5, 2015-01-01 00:01:20.325, -0.001, -0.002, 0.999, 0, 0.305, 0.061, -0.187, 0.148, -104.507, -43.512, -11.172, -25.382,, 0.61212, 6E-05, 0.00211, -0.79071,
 14:42:43.614,d3:c7:8d:a5:a9:b5, 2015-01-01 00:01:20.325, -0.005, -0.002, 0.999, 0, 0.305, 0.061, -0.187, 0.154, -104.502, -43.512, -11.172, -25.382,, 0.61212, 6E-05, 0.00211, -0.79071,
 14:42:43.614,d3:c7:8d:a5:a9:b5, 2015-01-01 00:01:20.325, -0.005, 0, 1, 0.122, 0.244, 0, -0.181, 0.159, -104.502, -43.512, -11.172, -25.382,, 0.61212, 6E-05, 0.00211, -0.79071,
 14:42:43.614,d3:c7:8d:a5:a9:b5, 2015-01-01 00:01:20.325, -0.004, 0, 1, 0.122, 0.244, 0, -0.181, 0.159, -104.502, -43.512, -11.172, -25.382,, 0.61212, 6E-05, 0.00211, -0.79071,
 14:42:43.644,d3:c7:8d:a5:a9:b5, 2015-01-01 00:01:20.680, -0.004, 0, 1, 0, 0, 0, -0.181, 0.159, -104.502, -43.512, -11.172, -25.382,, 0.61212, 6E-05, 0.00211, -0.79071,
 14:42:43.644,d3:c7:8d:a5:a9:b5, 2015-01-01 00:01:20.680, -0.004, 0, 1, 0, 0, 0, -0.181, 0.159, -104.502, -43.512, -11.172, -25.382,, 0.61212, 6E-05, 0.00211, -0.79071,
 14:42:43.644,d3:c7:8d:a5:a9:b5, 2015-01-01 00:01:20.680, -0.004, 0, 1.002, 0, 0, 0, -0.181, 0.159, -104.502, -43.512, -11.172, -25.382,, 0.61212, 6E-05, 0.00211, -0.79071,
 14:42:43.644,d3:c7:8d:a5:a9:b5, 2015-01-01 00:01:20.680, -0.003, 0, 1.002, 0, 0, 0, -0.176, 0.159, -104.502, -43.512, -11.172, -25.382,, 0.61212, 6E-05, 0.00211, -0.79071,
 14:42:43.675,d3:c7:8d:a5:a9:b5, 2015-01-01 00:01:20.680, -0.003, -0.001, 0.999, -0.244, 0, 0, -0.181, 0.159, -104.502, -43.512, -11.172, -25.382,, 0.61212, 6E-05, 0.00211, -0.79071,
 14:42:43.675,d3:c7:8d:a5:a9:b5, 2015-01-01 00:01:20.680, -0.001, -0.001, 0.999, -0.244, 0, 0, -0.181, 0.159, -104.502, -43.512, -11.172, -25.382,, 0.61212, 6E-05, 0.00211, -0.79071,
 14:42:43.675,d3:c7:8d:a5:a9:b5, 2015-01-01 00:01:20.680, -0.001, -0.003, 1, 0, 0.122, 0, -0.181, 0.165, -104.496, -43.512, -11.172, -25.382,, 0.61212, 6E-05, 0.00211, -0.79071,
 14:42:43.675,d3:c7:8d:a5:a9:b5, 2015-01-01 00:01:20.680, -0.002, -0.003, 1, 0, 0.122, 0, -0.181, 0.165, -104.496, -43.512, -11.172, -25.382,, 0.61212, 6E-05, 0.00211, -0.79071,
 14:42:43.733,d3:c7:8d:a5:a9:b5, 2015-01-01 00:01:20.680, -0.002, -0.001, 1, 0, 0.366, 0.122, -0.181, 0.165, -104.496, -43.512, -11.172, -25.382,, 0.61212, 6E-05, 0.00211, -0.79071,
 14:42:43.733,d3:c7:8d:a5:a9:b5, 2015-01-01 00:01:20.680, -0.003, -0.001, 1, 0, 0.366, 0.122, -0.181, 0.17, -104.496, -43.512, -11.172, -25.382,, 0.61212, 6E-05, 0.00211, -0.79071,
 14:42:43.733,d3:c7:8d:a5:a9:b5, 2015-01-01 00:01:20.680, -0.003, -0.001, 1.001, 0.061, 0.488, 0.183, -0.176, 0.176, -104.491, -43.512, -11.172, -25.382,, 0.61212, 6E-05, 0.00211, -0.79071,
 14:42:43.733,d3:c7:8d:a5:a9:b5, 2015-01-01 00:01:20.680, -0.005, -0.001, 1.001, 0.061, 0.488, 0.183, -0.176, 0.181, -104.491, -43.512, -11.172, -25.382,, 0.61212, 6E-05, 0.00211, -0.79071,
 14:42:43.764,d3:c7:8d:a5:a9:b5, 2015-01-01 00:01:20.680, -0.005, -0.001, 1, 0, 0.366, 0.183, -0.176, 0.181, -104.491, -43.512, -11.172, -25.382,, 0.61212, 6E-05, 0.00211, -0.79071,
 14:42:43.764,d3:c7:8d:a5:a9:b5, 2015-01-01 00:01:20.680, -0.003, -0.001, 1, 0, 0.366, 0.183, -0.176, 0.187, -104.485, -43.512, -11.172, -25.382,, 0.61212, 6E-05, 0.00211, -0.79071,
 14:42:43.764,d3:c7:8d:a5:a9:b5, 2015-01-01 00:01:20.680, -0.003, 0, 1, 0, 0.244, 0.183, -0.176, 0.192, -104.485, -43.512, -11.172, -25.382,, 0.61212, 6E-05, 0.00211, -0.79071,
 14:42:43.764,d3:c7:8d:a5:a9:b5, 2015-01-01 00:01:20.680, -0.002, 0, 1, 0, 0.244, 0.183, -0.176, 0.192, -104.48, -43.512, -11.172, -25.382,, 0.61212, 6E-05, 0.00211, -0.79071,
 14:42:43.795,d3:c7:8d:a5:a9:b5, 2015-01-01 00:01:20.680, -0.002, -0.001, 1, 0, 0.549, 0.183, -0.176, 0.198, -104.48, -43.512, -11.172, -25.382,, 0.61212, 6E-05, 0.00211, -0.79071,
 14:42:43.795,d3:c7:8d:a5:a9:b5, 2015-01-01 00:01:20.680, -0.005, -0.001, 1, 0, 0.549, 0.183, -0.17, 0.203, -104.474, -43.512, -11.172, -25.382,, 0.61212, 6E-05, 0.00211, -0.79071,
 14:42:43.795,d3:c7:8d:a5:a9:b5, 2015-01-01 00:01:20.680, -0.005, -0.001, 1, 0, 0.549, 0, -0.17, 0.209, -104.474, -43.512, -11.172, -25.382,, 0.61212, 6E-05, 0.00211, -0.79071,
 14:42:43.795,d3:c7:8d:a5:a9:b5, 2015-01-01 00:01:20.680, -0.008, -0.001, 1, 0, 0.549, 0, -0.17, 0.214, -104.474, -43.512, -11.172, -25.382,, 0.61212, 6E-05, 0.00211, -0.79071,
 14:42:43.854,d3:c7:8d:a5:a9:b5, 2015-01-01 00:01:20.680, -0.008, 0, 1, 0, 0.183, 0, -0.17, 0.214, -104.474, -43.512, -11.172, -25.382,, 0.61212, 6E-05, 0.00211, -0.79071,
 14:42:43.854,d3:c7:8d:a5:a9:b5, 2015-01-01 00:01:20.680, -0.006, 0, 1, 0, 0.183, 0, -0.17, 0.22, -104.474, -43.512, -11.172, -25.382,, 0.61212, 6E-05, 0.00211, -0.79071,
 14:42:43.854,d3:c7:8d:a5:a9:b5, 2015-01-01 00:01:20.680, -0.006, -0.001, 1.001, -0.061, -0.305, 0, -0.17, 0.22, -104.474, -43.512, -11.172, -25.382,, 0.61212, 6E-05, 0.00211, -0.79071,
 14:42:43.854,d3:c7:8d:a5:a9:b5, 2015-01-01 00:01:20.680, -0.004, -0.001, 1.001, -0.061, -0.305, 0, -0.17, 0.214, -104.474, -43.512, -11.172, -25.382,, 0.61212, 6E-05, 0.00211, -0.79071,
 14:42:43.884,d3:c7:8d:a5:a9:b5, 2015-01-01 00:01:20.680, -0.004, -0.001, 1, -0.061, -0.427, 0, -0.17, 0.209, -104.474, -43.512, -11.270, -25.284,, 0.61212, 6E-05, 0.00211, -0.79071,
 14:42:43.884,d3:c7:8d:a5:a9:b5, 2015-01-01 00:01:20.680, -0.004, -0.001, 1, -0.061, -0.427, 0, -0.17, 0.209, -104.474, -43.512, -11.270, -25.284,, 0.61212, 6E-05, 0.00211, -0.79071,
 14:42:43.884,d3:c7:8d:a5:a9:b5, 2015-01-01 00:01:20.680, -0.004, -0.001, 1, -0.061, -0.305, 0, -0.17, 0.203, -104.469, -43.512, -11.270, -25.284,, 0.61212, 6E-05, 0.00211, -0.79071,
 14:42:43.884,d3:c7:8d:a5:a9:b5, 2015-01-01 00:01:20.680, -0.004, -0.001, 1, -0.061, -0.305, 0, -0.17, 0.203, -104.469, -43.512, -11.270, -25.284,, 0.61212, 6E-05, 0.00211, -0.79071,
 14:42:43.915,d3:c7:8d:a5:a9:b5, 2015-01-01 00:01:20.680, -0.004, -0.001, 1, -0.061, -0.244, 0, -0.17, 0.198, -104.469, -43.512, -11.270, -25.284,, 0.61212, 6E-05, 0.00211, -0.79071,
 14:42:43.915,d3:c7:8d:a5:a9:b5, 2015-01-01 00:01:20.680, -0.006, -0.001, 1, -0.061, -0.244, 0, -0.17, 0.198, -104.469, -43.512, -11.270, -25.284,, 0.61212, 6E-05, 0.00211, -0.79071,
 14:42:43.915,d3:c7:8d:a5:a9:b5, 2015-01-01 00:01:20.680, -0.006, 0, 1, -0.122, -0.366, 0, -0.17, 0.192, -104.469, -43.512, -11.270, -25.284,, 0.61212, 6E-05, 0.00211, -0.79071,
 14:42:43.915,d3:c7:8d:a5:a9:b5, 2015-01-01 00:01:20.680, -0.005, 0, 1, -0.122, -0.366, 0, -0.17, 0.192, -104.469, -43.512, -11.270, -25.284,, 0.61212, 6E-05, 0.00211, -0.79071,
 14:42:43.975,d3:c7:8d:a5:a9:b5, 2015-01-01 00:01:20.680, -0.005, -0.001, 1, -0.122, -0.549, 0, -0.17, 0.187, -104.469, -43.512, -11.270, -25.284,, 0.61237, 0.00043, 0.00223, -0.7905,
 14:42:43.975,d3:c7:8d:a5:a9:b5, 2015-01-01 00:01:20.680, -0.002, -0.001, 1, -0.122, -0.549, 0, -0.17, 0.181, -104.469, -43.512, -11.270, -25.284,, 0.61237, 0.00043, 0.00223, -0.7905,
 14:42:43.975,d3:c7:8d:a5:a9:b5, 2015-01-01 00:01:20.680, -0.002, 0, 1, -0.244, -0.671, 0, -0.17, 0.176, -104.469, -43.512, -11.270, -25.284,, 0.61237, 0.00043, 0.00223, -0.7905,
 14:42:43.975,d3:c7:8d:a5:a9:b5, 2015-01-01 00:01:20.680, 0, 0, 1, -0.244, -0.671, 0, -0.176, 0.17, -104.469, -43.512, -11.270, -25.284,, 0.61237, 0.00043, 0.00223, -0.7905,
 14:42:44.005,d3:c7:8d:a5:a9:b5, 2015-01-01 00:01:21.040, 0, -0.001, 1, -0.183, -0.366, 0, -0.176, 0.165, -104.469, -43.512, -11.270, -25.284,, 0.61237, 0.00043, 0.00223, -0.7905,
 14:42:44.005,d3:c7:8d:a5:a9:b5, 2015-01-01 00:01:21.040, -0.001, -0.001, 1, -0.183, -0.366, 0, -0.176, 0.165, -104.464, -43.512, -11.270, -25.284,, 0.61237, 0.00043, 0.00223, -0.7905,
 14:42:44.005,d3:c7:8d:a5:a9:b5, 2015-01-01 00:01:21.040, -0.001, -0.001, 1, -0.061, 0, 0, -0.176, 0.165, -104.464, -43.512, -11.270, -25.284,, 0.61237, 0.00043, 0.00223, -0.7905,
 14:42:44.005,d3:c7:8d:a5:a9:b5, 2015-01-01 00:01:21.040, -0.004, -0.001, 1, -0.061, 0, 0, -0.176, 0.165, -104.464, -43.512, -11.270, -25.284,, 0.61237, 0.00043, 0.00223, -0.7905,
 14:42:44.033,d3:c7:8d:a5:a9:b5, 2015-01-01 00:01:21.040, -0.004, 0, 1, -0.061, 0, 0, -0.176, 0.165, -104.464, -43.512, -11.270, -25.284,, 0.61237, 0.00043, 0.00223, -0.7905,
 14:42:44.033,d3:c7:8d:a5:a9:b5, 2015-01-01 00:01:21.040, -0.004, 0, 1, -0.061, 0, 0, -0.176, 0.165, -104.464, -43.512, -11.270, -25.284,, 0.61237, 0.00043, 0.00223, -0.7905,
 14:42:44.033,d3:c7:8d:a5:a9:b5, 2015-01-01 00:01:21.040, -0.004, -0.002, 1, -0.122, -0.061, 0, -0.176, 0.165, -104.464, -43.512, -11.270, -25.284,, 0.61237, 0.00043, 0.00223, -0.7905,
 14:42:44.033,d3:c7:8d:a5:a9:b5, 2015-01-01 00:01:21.040, -0.003, -0.002, 1, -0.122, -0.061, 0, -0.176, 0.165, -104.464, -43.512, -11.270, -25.284,, 0.61237, 0.00043, 0.00223, -0.7905,
 14:42:44.095,d3:c7:8d:a5:a9:b5, 2015-01-01 00:01:21.040, -0.003, -0.001, 1, -0.122, -0.122, 0, -0.176, 0.165, -104.464, -43.512, -11.270, -25.284,, 0.61237, 0.00043, 0.00223, -0.7905,
 14:42:44.095,d3:c7:8d:a5:a9:b5, 2015-01-01 00:01:21.040, -0.003, -0.001, 1, -0.122, -0.122, 0, -0.176, 0.159, -104.464, -43.512, -11.270, -25.284,, 0.61237, 0.00043, 0.00223, -0.7905,
 14:42:44.095,d3:c7:8d:a5:a9:b5, 2015-01-01 00:01:21.040, -0.003, -0.002, 1, 0, -0.122, 0, -0.176, 0.159, -104.464, -43.512, -11.270, -25.284,, 0.61237, 0.00043, 0.00223, -0.7905,
 14:42:44.095,d3:c7:8d:a5:a9:b5, 2015-01-01 00:01:21.040, -0.003, -0.002, 1, 0, -0.122, 0, -0.176, 0.159, -104.464, -43.512, -11.270, -25.284,, 0.61237, 0.00043, 0.00223, -0.7905,
 14:42:44.124,d3:c7:8d:a5:a9:b5, 2015-01-01 00:01:21.040, -0.003, 0, 1, -0.061, 0, 0, -0.176, 0.159, -104.464, -43.512, -11.270, -25.284,, 0.61237, 0.00043, 0.00223, -0.7905,
 14:42:44.124,d3:c7:8d:a5:a9:b5, 2015-01-01 00:01:21.040, -0.002, 0, 1, -0.061, 0, 0, -0.176, 0.159, -104.458, -43.512, -11.270, -25.284,, 0.61237, 0.00043, 0.00223, -0.7905,
 14:42:44.124,d3:c7:8d:a5:a9:b5, 2015-01-01 00:01:21.040, -0.002, 0, 1.001, -0.061, 0.061, 0, -0.176, 0.159, -104.458, -43.512, -11.270, -25.284,, 0.61237, 0.00043, 0.00223, -0.7905,
 14:42:44.124,d3:c7:8d:a5:a9:b5, 2015-01-01 00:01:21.040, -0.002, 0, 1.001, -0.061, 0.061, 0, -0.176, 0.159, -104.458, -43.512, -11.270, -25.284,, 0.61237, 0.00043, 0.00223, -0.7905,
 14:42:44.185,d3:c7:8d:a5:a9:b5, 2015-01-01 00:01:21.040, -0.002, -0.002, 0.999, -0.061, 0.122, 0, -0.176, 0.165, -104.458, -43.512, -11.270, -25.284,, 0.61237, 0.00043, 0.00223, -0.7905,
 14:42:44.185,d3:c7:8d:a5:a9:b5, 2015-01-01 00:01:21.040, -0.002, -0.002, 0.999, -0.061, 0.122, 0, -0.176, 0.165, -104.458, -43.512, -11.270, -25.284,, 0.61237, 0.00043, 0.00223, -0.7905,
 14:42:44.185,d3:c7:8d:a5:a9:b5, 2015-01-01 00:01:21.040, -0.002, -0.001, 1, 0.061, 0.244, 0, -0.176, 0.165, -104.458, -43.512, -11.270, -25.284,, 0.61237, 0.00043, 0.00223, -0.7905,
 14:42:44.185,d3:c7:8d:a5:a9:b5, 2015-01-01 00:01:21.040, -0.003, -0.001, 1, 0.061, 0.244, 0, -0.176, 0.17, -104.458, -43.512, -11.270, -25.284,, 0.61237, 0.00043, 0.00223, -0.7905,
 14:42:44.214,d3:c7:8d:a5:a9:b5, 2015-01-01 00:01:21.040, -0.003, 0, 1, 0, 0.244, 0, -0.176, 0.17, -104.458, -43.512, -11.270, -25.186,, 0.61237, 0.00043, 0.00223, -0.7905,
 14:42:44.214,d3:c7:8d:a5:a9:b5, 2015-01-01 00:01:21.040, -0.002, 0, 1, 0, 0.244, 0, -0.176, 0.176, -104.458, -43.512, -11.270, -25.186,, 0.61237, 0.00043, 0.00223, -0.7905,
 14:42:44.214,d3:c7:8d:a5:a9:b5, 2015-01-01 00:01:21.040, -0.002, -0.001, 1.001, 0, 0.244, 0, -0.17, 0.176, -104.458, -43.512, -11.270, -25.186,, 0.61237, 0.00043, 0.00223, -0.7905,
 14:42:44.214,d3:c7:8d:a5:a9:b5, 2015-01-01 00:01:21.040, -0.004, -0.001, 1.001, 0, 0.244, 0, -0.17, 0.181, -104.458, -43.512, -11.270, -25.186,, 0.61237, 0.00043, 0.00223, -0.7905,
 14:42:44.245,d3:c7:8d:a5:a9:b5, 2015-01-01 00:01:21.040, -0.004, 0, 1, -0.061, 0.366, 0, -0.17, 0.181, -104.458, -43.512, -11.270, -25.186,, 0.61237, 0.00043, 0.00223, -0.7905,
 14:42:44.245,d3:c7:8d:a5:a9:b5, 2015-01-01 00:01:21.040, -0.004, 0, 1, -0.061, 0.366, 0, -0.17, 0.187, -104.458, -43.512, -11.270, -25.186,, 0.61237, 0.00043, 0.00223, -0.7905,
 14:42:44.245,d3:c7:8d:a5:a9:b5, 2015-01-01 00:01:21.040, -0.004, -0.002, 1, 0, 0.244, 0, -0.17, 0.187, -104.453, -43.512, -11.270, -25.186,, 0.61237, 0.00043, 0.00223, -0.7905,
 14:42:44.245,d3:c7:8d:a5:a9:b5, 2015-01-01 00:01:21.040, -0.003, -0.002, 1, 0, 0.244, 0, -0.17, 0.192, -104.453, -43.512, -11.270, -25.186,, 0.61237, 0.00043, 0.00223, -0.7905,
 14:42:44.303,d3:c7:8d:a5:a9:b5, 2015-01-01 00:01:21.040, -0.003, -0.001, 1, 0, 0.183, 0, -0.17, 0.192, -104.453, -43.512, -11.270, -25.186,, 0.61249, 0.0004, 0.00223, -0.79041,
 14:42:44.303,d3:c7:8d:a5:a9:b5, 2015-01-01 00:01:21.040, -0.004, -0.001, 1, 0, 0.183, 0, -0.17, 0.192, -104.453, -43.512, -11.270, -25.186,, 0.61249, 0.0004, 0.00223, -0.79041,
 14:42:44.303,d3:c7:8d:a5:a9:b5, 2015-01-01 00:01:21.040, -0.004, 0, 1, 0, 0.122, 0, -0.17, 0.198, -104.453, -43.512, -11.270, -25.186,, 0.61249, 0.0004, 0.00223, -0.79041,
 14:42:44.303,d3:c7:8d:a5:a9:b5, 2015-01-01 00:01:21.040, -0.004, 0, 1, 0, 0.122, 0, -0.17, 0.198, -104.453, -43.512, -11.270, -25.186,, 0.61249, 0.0004, 0.00223, -0.79041,
 14:42:44.333,d3:c7:8d:a5:a9:b5, 2015-01-01 00:01:21.365, -0.004, 0, 1.001, -0.122, 0.061, 0, -0.17, 0.198, -104.453, -43.512, -11.270, -25.186,, 0.61249, 0.0004, 0.00223, -0.79041,
 14:42:44.333,d3:c7:8d:a5:a9:b5, 2015-01-01 00:01:21.365, -0.003, 0, 1.001, -0.122, 0.061, 0, -0.17, 0.198, -104.453, -43.512, -11.270, -25.186,, 0.61249, 0.0004, 0.00223, -0.79041,
 14:42:44.333,d3:c7:8d:a5:a9:b5, 2015-01-01 00:01:21.365, -0.003, -0.001, 1, -0.122, 0.122, 0, -0.17, 0.198, -104.453, -43.512, -11.270, -25.186,, 0.61249, 0.0004, 0.00223, -0.79041,
 14:42:44.333,d3:c7:8d:a5:a9:b5, 2015-01-01 00:01:21.365, -0.004, -0.001, 1, -0.122, 0.122, 0, -0.17, 0.203, -104.453, -43.512, -11.270, -25.186,, 0.61249, 0.0004, 0.00223, -0.79041,
 14:42:44.363,d3:c7:8d:a5:a9:b5, 2015-01-01 00:01:21.365, -0.004, -0.002, 1, 0, 0.122, 0, -0.17, 0.203, -104.453, -43.512, -11.270, -25.186,, 0.61249, 0.0004, 0.00223, -0.79041,
 14:42:44.363,d3:c7:8d:a5:a9:b5, 2015-01-01 00:01:21.365, -0.005, -0.002, 1, 0, 0.122, 0, -0.17, 0.203, -104.453, -43.512, -11.270, -25.186,, 0.61249, 0.0004, 0.00223, -0.79041,
 14:42:44.363,d3:c7:8d:a5:a9:b5, 2015-01-01 00:01:21.365, -0.005, 0, 1, 0, -0.061, 0, -0.17, 0.203, -104.453, -43.512, -11.270, -25.186,, 0.61249, 0.0004, 0.00223, -0.79041,
 14:42:44.363,d3:c7:8d:a5:a9:b5, 2015-01-01 00:01:21.365, -0.004, 0, 1, 0, -0.061, 0, -0.17, 0.203, -104.453, -43.512, -11.270, -25.186,, 0.61249, 0.0004, 0.00223, -0.79041,
 14:42:44.423,d3:c7:8d:a5:a9:b5, 2015-01-01 00:01:21.365, -0.004, -0.001, 1, -0.061, -0.061, 0, -0.17, 0.203, -104.447, -43.512, -11.270, -25.186,, 0.61249, 0.0004, 0.00223, -0.79041,
 14:42:44.423,d3:c7:8d:a5:a9:b5, 2015-01-01 00:01:21.365, -0.004, -0.001, 1, -0.061, -0.061, 0, -0.17, 0.203, -104.447, -43.512, -11.270, -25.186,, 0.61249, 0.0004, 0.00223, -0.79041,
 14:42:44.423,d3:c7:8d:a5:a9:b5, 2015-01-01 00:01:21.365, -0.004, -0.001, 1, -0.061, 0, 0, -0.17, 0.203, -104.447, -43.512, -11.270, -25.186,, 0.61249, 0.0004, 0.00223, -0.79041,
 14:42:44.423,d3:c7:8d:a5:a9:b5, 2015-01-01 00:01:21.365, -0.006, -0.001, 1, -0.061, 0, 0, -0.17, 0.203, -104.447, -43.512, -11.270, -25.186,, 0.61249, 0.0004, 0.00223, -0.79041,
 14:42:44.454,d3:c7:8d:a5:a9:b5, 2015-01-01 00:01:21.365, -0.005, -0.002, 1, 0, 0, 0, -0.17, 0.203, -104.447, -43.512, -11.270, -25.186,, 0.61249, 0.0004, 0.00223, -0.79041,
 14:42:44.454,d3:c7:8d:a5:a9:b5, 2015-01-01 00:01:21.365, -0.005, 0, 1.001, -0.122, -0.366, 0, -0.17, 0.203, -104.447, -43.512, -11.270, -25.186,, 0.61249, 0.0004, 0.00223, -0.79041,
 14:42:44.454,d3:c7:8d:a5:a9:b5, 2015-01-01 00:01:21.365, -0.004, 0, 1.001, -0.122, -0.366, 0, -0.17, 0.198, -104.447, -43.512, -11.270, -25.186,, 0.61249, 0.0004, 0.00223, -0.79041,
 14:42:44.454,d3:c7:8d:a5:a9:b5, 2015-01-01 00:01:21.365, -0.004, -0.002, 0.999, -0.061, -0.61, 0, -0.17, 0.192, -104.447, -43.512, -11.270, -25.186,, 0.61249, 0.0004, 0.00223, -0.79041,
 14:42:44.483,d3:c7:8d:a5:a9:b5, 2015-01-01 00:01:21.365, -0.003, -0.002, 0.999, -0.061, -0.61, 0, -0.17, 0.187, -104.447, -43.512, -11.270, -25.186,, 0.61249, 0.0004, 0.00223, -0.79041,
 14:42:44.483,d3:c7:8d:a5:a9:b5, 2015-01-01 00:01:21.365, -0.003, -0.001, 1, 0, -0.671, 0, -0.17, 0.181, -104.447, -43.512, -11.270, -25.186,, 0.61249, 0.0004, 0.00223, -0.79041,
 14:42:44.483,d3:c7:8d:a5:a9:b5, 2015-01-01 00:01:21.365, 0, -0.001, 1, 0, -0.671, 0, -0.17, 0.176, -104.447, -43.512, -11.270, -25.186,, 0.61249, 0.0004, 0.00223, -0.79041,
 14:42:44.483,d3:c7:8d:a5:a9:b5, 2015-01-01 00:01:21.365, 0, 0, 1, 0, -0.244, 0, -0.165, 0.17, -104.447, -43.512, -11.270, -25.186,, 0.61249, 0.0004, 0.00223, -0.79041,
 14:42:44.544,d3:c7:8d:a5:a9:b5, 2015-01-01 00:01:21.365, -0.002, 0, 1, 0, -0.244, 0, -0.165, 0.17, -104.447, -43.512, -11.270, -25.186,, 0.61249, 0.0004, 0.00223, -0.79041,
 14:42:44.544,d3:c7:8d:a5:a9:b5, 2015-01-01 00:01:21.365, -0.002, -0.002, 0.999, 0, 0.122, 0, -0.165, 0.17, -104.447, -43.512, -11.270, -25.186,, 0.61249, 0.0004, 0.00223, -0.79041,
 14:42:44.544,d3:c7:8d:a5:a9:b5, 2015-01-01 00:01:21.365, -0.005, -0.002, 0.999, 0, 0.122, 0, -0.165, 0.17, -104.447, -43.512, -11.270, -25.186,, 0.61249, 0.0004, 0.00223, -0.79041,
 14:42:44.544,d3:c7:8d:a5:a9:b5, 2015-01-01 00:01:21.365, -0.005, 0, 1.001, 0, 0, 0, -0.165, 0.17, -104.442, -43.512, -11.270, -25.186,, 0.61249, 0.0004, 0.00223, -0.79041,
 14:42:44.574,d3:c7:8d:a5:a9:b5, 2015-01-01 00:01:21.365, -0.003, 0, 1.001, 0, 0, 0, -0.165, 0.17, -104.442, -43.708, -11.270, -25.284,, 0.61249, 0.0004, 0.00223, -0.79041,
 14:42:44.574,d3:c7:8d:a5:a9:b5, 2015-01-01 00:01:21.365, -0.003, 0, 1, -0.122, -0.244, 0, -0.165, 0.17, -104.442, -43.708, -11.270, -25.284,, 0.61249, 0.0004, 0.00223, -0.79041,
 14:42:44.574,d3:c7:8d:a5:a9:b5, 2015-01-01 00:01:21.365, -0.003, 0, 1, -0.122, -0.244, 0, -0.165, 0.17, -104.442, -43.708, -11.270, -25.284,, 0.61249, 0.0004, 0.00223, -0.79041,
 14:42:44.574,d3:c7:8d:a5:a9:b5, 2015-01-01 00:01:21.365, -0.003, -0.001, 1, 0, -0.122, 0, -0.165, 0.165, -104.442, -43.708, -11.270, -25.284,, 0.61249, 0.0004, 0.00223, -0.79041,
 14:42:44.604,d3:c7:8d:a5:a9:b5, 2015-01-01 00:01:21.365, -0.004, -0.001, 1, 0, -0.122, 0, -0.165, 0.165, -104.442, -43.708, -11.270, -25.284,, 0.61249, 0.0004, 0.00223, -0.79041,
 14:42:44.604,d3:c7:8d:a5:a9:b5, 2015-01-01 00:01:21.365, -0.004, 0, 1, -0.061, -0.122, 0, -0.165, 0.165, -104.442, -43.708, -11.270, -25.284,, 0.61249, 0.0004, 0.00223, -0.79041,
 14:42:44.604,d3:c7:8d:a5:a9:b5, 2015-01-01 00:01:21.365, -0.001, 0, 1, -0.061, -0.122, 0, -0.165, 0.165, -104.442, -43.708, -11.270, -25.284,, 0.61249, 0.0004, 0.00223, -0.79041,
 14:42:44.604,d3:c7:8d:a5:a9:b5, 2015-01-01 00:01:21.365, -0.001, -0.002, 0.999, -0.061, 0, 0, -0.165, 0.165, -104.442, -43.708, -11.270, -25.284,, 0.61249, 0.0004, 0.00223, -0.79041,
 14:42:44.665,d3:c7:8d:a5:a9:b5, 2015-01-01 00:01:21.365, 0, -0.002, 0.999, -0.061, 0, 0, -0.165, 0.165, -104.442, -43.708, -11.270, -25.284,, 0.61258, 0.00024, 0.00201, -0.79034,
 14:42:44.665,d3:c7:8d:a5:a9:b5, 2015-01-01 00:01:21.365, 0, -0.001, 1.001, 0.061, 0.305, 0, -0.165, 0.165, -104.442, -43.708, -11.270, -25.284,, 0.61258, 0.00024, 0.00201, -0.79034,
 14:42:44.665,d3:c7:8d:a5:a9:b5, 2015-01-01 00:01:21.365, -0.004, -0.001, 1.001, 0.061, 0.305, 0, -0.165, 0.17, -104.442, -43.708, -11.270, -25.284,, 0.61258, 0.00024, 0.00201, -0.79034,
 14:42:44.665,d3:c7:8d:a5:a9:b5, 2015-01-01 00:01:21.365, -0.004, 0, 1.001, 0.061, 0.549, 0, -0.159, 0.17, -104.442, -43.708, -11.270, -25.284,, 0.61258, 0.00024, 0.00201, -0.79034,
 14:42:44.693,d3:c7:8d:a5:a9:b5, 2015-01-01 00:01:21.725, -0.006, 0, 1.001, 0.061, 0.549, 0, -0.159, 0.176, -104.442, -43.708, -11.270, -25.284,, 0.61258, 0.00024, 0.00201, -0.79034,
 14:42:44.693,d3:c7:8d:a5:a9:b5, 2015-01-01 00:01:21.725, -0.006, -0.001, 1, 0, 0.244, 0, -0.159, 0.181, -104.442, -43.708, -11.270, -25.284,, 0.61258, 0.00024, 0.00201, -0.79034,
 14:42:44.693,d3:c7:8d:a5:a9:b5, 2015-01-01 00:01:21.725, -0.003, -0.001, 1, 0, 0.244, 0, -0.159, 0.187, -104.442, -43.708, -11.270, -25.284,, 0.61258, 0.00024, 0.00201, -0.79034,
 14:42:44.693,d3:c7:8d:a5:a9:b5, 2015-01-01 00:01:21.725, -0.003, 0, 1, -0.122, 0, 0, -0.159, 0.187, -104.442, -43.708, -11.270, -25.284,, 0.61258, 0.00024, 0.00201, -0.79034,
 14:42:44.723,d3:c7:8d:a5:a9:b5, 2015-01-01 00:01:21.725, 0, 0, 1, -0.122, 0, 0, -0.159, 0.187, -104.442, -43.708, -11.270, -25.284,, 0.61258, 0.00024, 0.00201, -0.79034,
 14:42:44.723,d3:c7:8d:a5:a9:b5, 2015-01-01 00:01:21.725, 0, -0.001, 1, 0, 0.244, 0, -0.159, 0.187, -104.436, -43.708, -11.270, -25.284,, 0.61258, 0.00024, 0.00201, -0.79034,
 14:42:44.723,d3:c7:8d:a5:a9:b5, 2015-01-01 00:01:21.725, -0.003, -0.001, 1, 0, 0.244, 0, -0.159, 0.187, -104.436, -43.708, -11.270, -25.284,, 0.61258, 0.00024, 0.00201, -0.79034,
 14:42:44.723,d3:c7:8d:a5:a9:b5, 2015-01-01 00:01:21.725, -0.003, -0.001, 1, 0.061, 0.671, 0, -0.159, 0.192, -104.436, -43.708, -11.270, -25.284,, 0.61258, 0.00024, 0.00201, -0.79034,
 14:42:44.784,d3:c7:8d:a5:a9:b5, 2015-01-01 00:01:21.725, -0.007, -0.001, 1, 0.061, 0.671, 0, -0.154, 0.198, -104.436, -43.708, -11.270, -25.284,, 0.61258, 0.00024, 0.00201, -0.79034,
 14:42:44.784,d3:c7:8d:a5:a9:b5, 2015-01-01 00:01:21.725, -0.007, 0, 1.001, 0, 0.366, 0, -0.154, 0.203, -104.436, -43.708, -11.270, -25.284,, 0.61258, 0.00024, 0.00201, -0.79034,
 14:42:44.784,d3:c7:8d:a5:a9:b5, 2015-01-01 00:01:21.725, -0.004, 0, 1.001, 0, 0.366, 0, -0.154, 0.209, -104.436, -43.708, -11.270, -25.284,, 0.61258, 0.00024, 0.00201, -0.79034,
 14:42:44.784,d3:c7:8d:a5:a9:b5, 2015-01-01 00:01:21.725, -0.004, 0, 1, -0.061, 0.183, 0, -0.154, 0.214, -104.436, -43.708, -11.270, -25.284,, 0.61258, 0.00024, 0.00201, -0.79034,
 14:42:44.814,d3:c7:8d:a5:a9:b5, 2015-01-01 00:01:21.725, -0.004, 0, 1, -0.061, 0.183, 0, -0.154, 0.214, -104.436, -43.708, -11.270, -25.284,, 0.61258, 0.00024, 0.00201, -0.79034,
 14:42:44.814,d3:c7:8d:a5:a9:b5, 2015-01-01 00:01:21.725, -0.004, -0.001, 1, 0, 0.061, 0, -0.154, 0.214, -104.436, -43.708, -11.270, -25.284,, 0.61258, 0.00024, 0.00201, -0.79034,
 14:42:44.814,d3:c7:8d:a5:a9:b5, 2015-01-01 00:01:21.725, -0.005, -0.001, 1, 0, 0.061, 0, -0.154, 0.214, -104.436, -43.708, -11.270, -25.284,, 0.61258, 0.00024, 0.00201, -0.79034,
 14:42:44.814,d3:c7:8d:a5:a9:b5, 2015-01-01 00:01:21.725, -0.005, -0.001, 0.999, -0.061, 0, 0, -0.154, 0.214, -104.436, -43.708, -11.270, -25.284,, 0.61258, 0.00024, 0.00201, -0.79034,
 14:42:44.845,d3:c7:8d:a5:a9:b5, 2015-01-01 00:01:21.725, -0.003, -0.001, 0.999, -0.061, 0, 0, -0.154, 0.214, -104.436, -43.708, -11.270, -25.284,, 0.61258, 0.00024, 0.00201, -0.79034,
 14:42:44.845,d3:c7:8d:a5:a9:b5, 2015-01-01 00:01:21.725, -0.003, -0.001, 1.001, 0, 0.061, 0, -0.154, 0.214, -104.436, -43.708, -11.270, -25.284,, 0.61258, 0.00024, 0.00201, -0.79034,
 14:42:44.845,d3:c7:8d:a5:a9:b5, 2015-01-01 00:01:21.725, -0.004, -0.001, 1.001, 0, 0.061, 0, -0.154, 0.22, -104.436, -43.708, -11.270, -25.284,, 0.61258, 0.00024, 0.00201, -0.79034,
 14:42:44.845,d3:c7:8d:a5:a9:b5, 2015-01-01 00:01:21.725, -0.004, -0.001, 1, -0.122, 0.183, 0, -0.154, 0.22, -104.436, -43.708, -11.270, -25.284,, 0.61258, 0.00024, 0.00201, -0.79034,
 14:42:44.904,d3:c7:8d:a5:a9:b5, 2015-01-01 00:01:21.725, -0.007, -0.001, 1, -0.122, 0.183, 0, -0.154, 0.22, -104.436, -43.708, -11.270, -25.284,, 0.61258, 0.00024, 0.00201, -0.79034,
 14:42:44.904,d3:c7:8d:a5:a9:b5, 2015-01-01 00:01:21.725, -0.007, -0.001, 1, 0, 0, 0, -0.154, 0.22, -104.436, -43.708, -11.270, -25.284,, 0.61258, 0.00024, 0.00201, -0.79034,
 14:42:44.904,d3:c7:8d:a5:a9:b5, 2015-01-01 00:01:21.725, -0.006, -0.001, 1, 0, 0, 0, -0.154, 0.22, -104.436, -43.708, -11.270, -25.284,, 0.61258, 0.00024, 0.00201, -0.79034,
 14:42:44.904,d3:c7:8d:a5:a9:b5, 2015-01-01 00:01:21.725, -0.006, 0, 1, -0.122, -0.61, 0, -0.154, 0.214, -104.436, -43.708, -11.270, -25.284,, 0.61258, 0.00024, 0.00201, -0.79034,
 14:42:44.934,d3:c7:8d:a5:a9:b5, 2015-01-01 00:01:21.725, -0.001, 0, 1, -0.122, -0.61, 0, -0.154, 0.209, -104.431, -43.512, -11.172, -25.284,, 0.61258, 0.00024, 0.00201, -0.79034,
 14:42:44.934,d3:c7:8d:a5:a9:b5, 2015-01-01 00:01:21.725, -0.001, -0.001, 0.999, -0.244, -0.549, 0, -0.154, 0.203, -104.431, -43.512, -11.172, -25.284,, 0.61258, 0.00024, 0.00201, -0.79034,
 14:42:44.934,d3:c7:8d:a5:a9:b5, 2015-01-01 00:01:21.725, 0, -0.001, 0.999, -0.244, -0.549, 0, -0.159, 0.203, -104.431, -43.512, -11.172, -25.284,, 0.61258, 0.00024, 0.00201, -0.79034,
 14:42:44.934,d3:c7:8d:a5:a9:b5, 2015-01-01 00:01:21.725, 0, -0.001, 1.001, 0, 0.122, 0, -0.159, 0.203, -104.431, -43.512, -11.172, -25.284,, 0.61258, 0.00024, 0.00201, -0.79034,
 14:42:44.964,d3:c7:8d:a5:a9:b5, 2015-01-01 00:01:21.725, -0.005, -0.001, 1.001, 0, 0.122, 0, -0.154, 0.203, -104.431, -43.512, -11.172, -25.284,, 0.61258, 0.00024, 0.00201, -0.79034,
 14:42:44.964,d3:c7:8d:a5:a9:b5, 2015-01-01 00:01:21.725, -0.005, 0, 1, 0, 0.427, 0, -0.154, 0.209, -104.431, -43.512, -11.172, -25.284,, 0.61258, 0.00024, 0.00201, -0.79034,
 14:42:44.964,d3:c7:8d:a5:a9:b5, 2015-01-01 00:01:21.725, -0.007, 0, 1, 0, 0.427, 0, -0.154, 0.214, -104.431, -43.512, -11.172, -25.284,, 0.61258, 0.00024, 0.00201, -0.79034,
 14:42:44.964,d3:c7:8d:a5:a9:b5, 2015-01-01 00:01:21.725, -0.007, -0.002, 1, -0.122, 0.061, 0, -0.154, 0.214, -104.431, -43.512, -11.172, -25.284,, 0.61258, 0.00024, 0.00201, -0.79034,
 14:42:45.024,d3:c7:8d:a5:a9:b5, 2015-01-01 00:01:21.725, -0.006, -0.002, 1, -0.122, 0.061, 0, -0.154, 0.214, -104.431, -43.512, -11.172, -25.284,, 0.61264, 0.00061, 0.00223, -0.79028,
 14:42:45.024,d3:c7:8d:a5:a9:b5, 2015-01-01 00:01:21.725, -0.006, -0.001, 1, -0.061, -0.366, 0, -0.154, 0.209, -104.431, -43.512, -11.172, -25.284,, 0.61264, 0.00061, 0.00223, -0.79028,
 14:42:45.024,d3:c7:8d:a5:a9:b5, 2015-01-01 00:01:21.725, -0.002, -0.001, 1, -0.061, -0.366, 0, -0.154, 0.209, -104.431, -43.512, -11.172, -25.284,, 0.61264, 0.00061, 0.00223, -0.79028,
 14:42:45.024,d3:c7:8d:a5:a9:b5, 2015-01-01 00:01:21.725, -0.002, 0, 1, -0.061, -0.244, 0, -0.154, 0.203, -104.431, -43.512, -11.172, -25.284,, 0.61264, 0.00061, 0.00223, -0.79028,
 14:42:45.054,d3:c7:8d:a5:a9:b5, 2015-01-01 00:01:21.725, -0.004, 0, 1, -0.061, -0.244, 0, -0.154, 0.203, -104.431, -43.512, -11.172, -25.284,, 0.61264, 0.00061, 0.00223, -0.79028,
 14:42:45.054,d3:c7:8d:a5:a9:b5, 2015-01-01 00:01:21.725, -0.004, -0.001, 1, -0.061, -0.061, 0, -0.154, 0.203, -104.431, -43.512, -11.172, -25.284,, 0.61264, 0.00061, 0.00223, -0.79028,
 14:42:45.054,d3:c7:8d:a5:a9:b5, 2015-01-01 00:01:21.725, -0.005, -0.001, 1, -0.061, -0.061, 0, -0.159, 0.203, -104.431, -43.512, -11.172, -25.284,, 0.61264, 0.00061, 0.00223, -0.79028,
 14:42:45.054,d3:c7:8d:a5:a9:b5, 2015-01-01 00:01:21.725, -0.005, 0, 1, -0.061, -0.122, 0, -0.159, 0.203, -104.431, -43.512, -11.172, -25.284,, 0.61264, 0.00061, 0.00223, -0.79028,
 14:42:45.084,d3:c7:8d:a5:a9:b5, 2015-01-01 00:01:21.725, -0.003, 0, 1, -0.061, -0.122, 0, -0.159, 0.198, -104.431, -43.512, -11.172, -25.284,, 0.61264, 0.00061, 0.00223, -0.79028,
 14:42:45.084,d3:c7:8d:a5:a9:b5, 2015-01-01 00:01:21.725, -0.003, -0.001, 1, -0.122, -0.305, 0, -0.159, 0.198, -104.431, -43.512, -11.172, -25.284,, 0.61264, 0.00061, 0.00223, -0.79028,
 14:42:45.084,d3:c7:8d:a5:a9:b5, 2015-01-01 00:01:21.725, -0.001, -0.001, 1, -0.122, -0.305, 0, -0.159, 0.192, -104.431, -43.512, -11.172, -25.284,, 0.61264, 0.00061, 0.00223, -0.79028,
 14:42:45.084,d3:c7:8d:a5:a9:b5, 2015-01-01 00:01:21.725, -0.001, -0.001, 0.999, -0.183, 0.061, 0, -0.159, 0.198, -104.431, -43.512, -11.172, -25.284,, 0.61264, 0.00061, 0.00223, -0.79028,
 14:42:45.175,d3:c7:8d:a5:a9:b5, 2015-01-01 00:01:21.725, -0.004, -0.001, 0.999, -0.183, 0.061, 0, -0.159, 0.198, -104.431, -43.512, -11.172, -25.284, 21.19, 0.61264, 0.00061, 0.00223, -0.79028,
 14:42:45.175,d3:c7:8d:a5:a9:b5, 2015-01-01 00:01:21.725, -0.004, -0.001, 1, 0, 0.427, 0, -0.159, 0.203, -104.425, -43.512, -11.172, -25.284, 21.19, 0.61264, 0.00061, 0.00223, -0.79028,
 14:42:45.175,d3:c7:8d:a5:a9:b5, 2015-01-01 00:01:21.725, -0.005, -0.001, 1, 0, 0.427, 0, -0.159, 0.203, -104.425, -43.512, -11.172, -25.284, 21.19, 0.61264, 0.00061, 0.00223, -0.79028,
 14:42:45.175,d3:c7:8d:a5:a9:b5, 2015-01-01 00:01:21.725, -0.005, 0, 1.001, -0.061, 0.427, 0, -0.159, 0.209, -104.425, -43.512, -11.172, -25.284, 21.19, 0.61264, 0.00061, 0.00223, -0.79028,
 14:42:45.175,d3:c7:8d:a5:a9:b5, 2015-01-01 00:01:21.725, -0.005, 0, 1.001, -0.061, 0.427, 0, -0.159, 0.214, -104.425, -43.512, -11.172, -25.284, 21.19, 0.61264, 0.00061, 0.00223, -0.79028,
 14:42:45.175,d3:c7:8d:a5:a9:b5, 2015-01-01 00:01:21.725, -0.005, -0.001, 1, -0.122, 0.244, 0, -0.159, 0.214, -104.425, -43.512, -11.172, -25.284, 21.19, 0.61264, 0.00061, 0.00223, -0.79028,
 14:42:45.175,d3:c7:8d:a5:a9:b5, 2015-01-01 00:01:21.725, -0.004, -0.001, 1, -0.122, 0.244, 0, -0.159, 0.22, -104.425, -43.512, -11.172, -25.284, 21.19, 0.61264, 0.00061, 0.00223, -0.79028,
 14:42:45.175,d3:c7:8d:a5:a9:b5, 2015-01-01 00:01:21.725, -0.004, -0.001, 1, 0, 0.061, 0, -0.159, 0.22, -104.425, -43.512, -11.172, -25.284, 21.19, 0.61264, 0.00061, 0.00223, -0.79028,
 14:42:45.234,d3:c7:8d:a5:a9:b5, 2015-01-01 00:01:22.200, -0.002, -0.001, 1, 0, 0.061, 0, -0.159, 0.22, -104.425, -43.512, -11.172, -25.284, 21.19, 0.61264, 0.00061, 0.00223, -0.79028,
 14:42:45.234,d3:c7:8d:a5:a9:b5, 2015-01-01 00:01:22.200, -0.002, 0, 1, 0, 0.183, 0, -0.159, 0.22, -104.425, -43.512, -11.172, -25.284, 21.19, 0.61264, 0.00061, 0.00223, -0.79028,
 14:42:45.234,d3:c7:8d:a5:a9:b5, 2015-01-01 00:01:22.200, -0.003, 0, 1, 0, 0.183, 0, -0.159, 0.225, -104.425, -43.512, -11.172, -25.284, 21.19, 0.61264, 0.00061, 0.00223, -0.79028,
 14:42:45.234,d3:c7:8d:a5:a9:b5, 2015-01-01 00:01:22.200, -0.003, -0.001, 1, 0, 0.61, 0, -0.159, 0.231, -104.425, -43.512, -11.172, -25.284, 21.19, 0.61264, 0.00061, 0.00223, -0.79028,
 14:42:45.263,d3:c7:8d:a5:a9:b5, 2015-01-01 00:01:22.200, -0.008, -0.001, 1, 0, 0.61, 0, -0.159, 0.236, -104.425, -43.512, -11.172, -25.284, 21.19, 0.61264, 0.00061, 0.00223, -0.79028,
 14:42:45.263,d3:c7:8d:a5:a9:b5, 2015-01-01 00:01:22.200, -0.008, 0, 1, -0.061, 0.61, 0, -0.159, 0.242, -104.425, -43.512, -11.172, -25.284, 21.19, 0.61264, 0.00061, 0.00223, -0.79028,
 14:42:45.263,d3:c7:8d:a5:a9:b5, 2015-01-01 00:01:22.200, -0.006, 0, 1, -0.061, 0.61, 0, -0.159, 0.247, -104.425, -43.512, -11.172, -25.284, 21.19, 0.61264, 0.00061, 0.00223, -0.79028,
 14:42:45.263,d3:c7:8d:a5:a9:b5, 2015-01-01 00:01:22.200, -0.006, -0.003, 1, -0.061, 0.061, 0, -0.159, 0.247, -104.425, -43.512, -11.172, -25.284, 21.19, 0.61264, 0.00061, 0.00223, -0.79028,
 14:42:45.293,d3:c7:8d:a5:a9:b5, 2015-01-01 00:01:22.200, -0.006, -0.003, 1, -0.061, 0.061, 0, -0.159, 0.253, -104.425, -43.512, -11.172, -25.284, 21.19, 0.61264, 0.00061, 0.00223, -0.79028,
 14:42:45.293,d3:c7:8d:a5:a9:b5, 2015-01-01 00:01:22.200, -0.006, -0.001, 1, 0, 0, 0, -0.159, 0.253, -104.425, -43.512, -11.172, -25.284, 21.19, 0.61264, 0.00061, 0.00223, -0.79028,
 14:42:45.293,d3:c7:8d:a5:a9:b5, 2015-01-01 00:01:22.200, -0.004, -0.001, 1, 0, 0, 0, -0.154, 0.253, -104.425, -43.512, -11.172, -25.284, 21.19, 0.61264, 0.00061, 0.00223, -0.79028,
 14:42:45.293,d3:c7:8d:a5:a9:b5, 2015-01-01 00:01:22.200, -0.004, -0.002, 1, 0, 0, 0, -0.154, 0.253, -104.425, -43.512, -11.172, -25.284, 21.19, 0.61264, 0.00061, 0.00223, -0.79028,
 14:42:45.323,d3:c7:8d:a5:a9:b5, 2015-01-01 00:01:22.200, -0.004, -0.002, 1, 0, 0, 0, -0.154, 0.253, -104.425, -43.512, -11.172, -25.284, 21.19, 0.61264, 0.00061, 0.00223, -0.79028,
 14:42:45.323,d3:c7:8d:a5:a9:b5, 2015-01-01 00:01:22.200, -0.004, -0.001, 1.001, 0, 0.183, 0, -0.154, 0.253, -104.425, -43.512, -11.172, -25.284, 21.19, 0.61264, 0.00061, 0.00223, -0.79028,
 14:42:45.323,d3:c7:8d:a5:a9:b5, 2015-01-01 00:01:22.200, -0.005, -0.001, 1.001, 0, 0.183, 0, -0.154, 0.253, -104.425, -43.512, -11.172, -25.284, 21.19, 0.61264, 0.00061, 0.00223, -0.79028,
 14:42:45.323,d3:c7:8d:a5:a9:b5, 2015-01-01 00:01:22.200, -0.006, 0, 1, 0, 0.183, 0, -0.154, 0.258, -104.425, -43.512, -11.172, -25.284, 21.19, 0.61264, 0.00061, 0.00223, -0.79028,
 14:42:45.385,d3:c7:8d:a5:a9:b5, 2015-01-01 00:01:22.200, -0.006, -0.001, 1, -0.061, 0, 0, -0.154, 0.258, -104.425, -43.512, -11.172, -25.284, 21.19, 0.61264, 0.00061, 0.00223, -0.79028,
 14:42:45.385,d3:c7:8d:a5:a9:b5, 2015-01-01 00:01:22.200, -0.005, -0.001, 1, -0.061, 0, 0, -0.154, 0.258, -104.425, -43.512, -11.172, -25.284, 21.19, 0.61264, 0.00061, 0.00223, -0.79028,
 14:42:45.385,d3:c7:8d:a5:a9:b5, 2015-01-01 00:01:22.200, -0.005, -0.001, 1.001, 0, -0.061, 0, -0.154, 0.258, -104.425, -43.512, -11.172, -25.284, 21.19, 0.61264, 0.00061, 0.00223, -0.79028,
 14:42:45.385,d3:c7:8d:a5:a9:b5, 2015-01-01 00:01:22.200, -0.004, -0.001, 1.001, 0, -0.061, 0, -0.154, 0.258, -104.42, -43.512, -11.172, -25.284, 21.19, 0.61264, 0.00061, 0.00223, -0.79028,
 14:42:45.413,d3:c7:8d:a5:a9:b5, 2015-01-01 00:01:22.200, -0.004, -0.001, 1, 0, 0, 0, -0.154, 0.258, -104.42, -43.414, -11.172, -25.186, 21.19, 0.61264, 0.00061, 0.00223, -0.79028,
 14:42:45.413,d3:c7:8d:a5:a9:b5, 2015-01-01 00:01:22.200, -0.007, -0.001, 1, 0, 0, 0, -0.154, 0.258, -104.42, -43.414, -11.172, -25.186, 21.19, 0.61264, 0.00061, 0.00223, -0.79028,
 14:42:45.413,d3:c7:8d:a5:a9:b5, 2015-01-01 00:01:22.200, -0.007, 0, 1, -0.122, 0, 0, -0.154, 0.258, -104.42, -43.414, -11.172, -25.186, 21.19, 0.61264, 0.00061, 0.00223, -0.79028,
 14:42:45.413,d3:c7:8d:a5:a9:b5, 2015-01-01 00:01:22.200, -0.003, 0, 1, -0.122, 0, 0, -0.154, 0.258, -104.42, -43.414, -11.172, -25.186, 21.19, 0.61264, 0.00061, 0.00223, -0.79028,
 14:42:45.445,d3:c7:8d:a5:a9:b5, 2015-01-01 00:01:22.200, -0.003, -0.001, 1.002, -0.122, 0, 0, -0.154, 0.258, -104.42, -43.414, -11.172, -25.186, 21.19, 0.61264, 0.00061, 0.00223, -0.79028,
 14:42:45.445,d3:c7:8d:a5:a9:b5, 2015-01-01 00:01:22.200, -0.005, -0.001, 1.002, -0.122, 0, 0, -0.154, 0.258, -104.42, -43.414, -11.172, -25.186, 21.19, 0.61264, 0.00061, 0.00223, -0.79028,
 14:42:45.445,d3:c7:8d:a5:a9:b5, 2015-01-01 00:01:22.200, -0.005, -0.002, 1, -0.061, 0.122, 0, -0.154, 0.258, -104.42, -43.414, -11.172, -25.186, 21.19, 0.61264, 0.00061, 0.00223, -0.79028,
 14:42:45.445,d3:c7:8d:a5:a9:b5, 2015-01-01 00:01:22.200, -0.006, -0.002, 1, -0.061, 0.122, 0, -0.154, 0.264, -104.42, -43.414, -11.172, -25.186, 21.19, 0.61264, 0.00061, 0.00223, -0.79028,
 14:42:45.503,d3:c7:8d:a5:a9:b5, 2015-01-01 00:01:22.200, -0.006, -0.002, 1, 0, 0.183, 0, -0.154, 0.264, -104.42, -43.414, -11.172, -25.186, 21.19, 0.6127, 0.00095, 0.00247, -0.79022,
 14:42:45.503,d3:c7:8d:a5:a9:b5, 2015-01-01 00:01:22.200, -0.007, -0.002, 1, 0, 0.183, 0, -0.154, 0.264, -104.42, -43.414, -11.172, -25.186, 21.19, 0.6127, 0.00095, 0.00247, -0.79022,
 14:42:45.503,d3:c7:8d:a5:a9:b5, 2015-01-01 00:01:22.200, -0.007, -0.001, 1, -0.122, 0, 0, -0.154, 0.264, -104.42, -43.414, -11.172, -25.186, 21.19, 0.6127, 0.00095, 0.00247, -0.79022,
 14:42:45.503,d3:c7:8d:a5:a9:b5, 2015-01-01 00:01:22.200, -0.004, -0.001, 1, -0.122, 0, 0, -0.154, 0.264, -104.42, -43.414, -11.172, -25.186, 21.19, 0.6127, 0.00095, 0.00247, -0.79022,
 14:42:45.534,d3:c7:8d:a5:a9:b5, 2015-01-01 00:01:22.560, -0.004, -0.002, 1.001, 0, 0, 0, -0.154, 0.269, -104.42, -43.414, -11.172, -25.186, 21.19, 0.6127, 0.00095, 0.00247, -0.79022,
 14:42:45.534,d3:c7:8d:a5:a9:b5, 2015-01-01 00:01:22.560, -0.005, -0.002, 1.001, 0, 0, 0, -0.154, 0.269, -104.42, -43.414, -11.172, -25.186, 21.19, 0.6127, 0.00095, 0.00247, -0.79022,
 14:42:45.534,d3:c7:8d:a5:a9:b5, 2015-01-01 00:01:22.560, -0.005, 0, 1, 0, 0.244, 0, -0.154, 0.269, -104.42, -43.414, -11.172, -25.186, 21.19, 0.6127, 0.00095, 0.00247, -0.79022,
 14:42:45.534,d3:c7:8d:a5:a9:b5, 2015-01-01 00:01:22.560, -0.006, 0, 1, 0, 0.244, 0, -0.154, 0.269, -104.42, -43.414, -11.172, -25.186, 21.19, 0.6127, 0.00095, 0.00247, -0.79022,
 14:42:45.594,d3:c7:8d:a5:a9:b5, 2015-01-01 00:01:22.560, -0.006, -0.001, 1, 0, 0.183, 0, -0.154, 0.275, -104.42, -43.414, -11.172, -25.186, 21.19, 0.6127, 0.00095, 0.00247, -0.79022,
 14:42:45.594,d3:c7:8d:a5:a9:b5, 2015-01-01 00:01:22.560, -0.007, -0.001, 1, 0, 0.183, 0, -0.154, 0.275, -104.42, -43.414, -11.172, -25.186, 21.19, 0.6127, 0.00095, 0.00247, -0.79022,
 14:42:45.594,d3:c7:8d:a5:a9:b5, 2015-01-01 00:01:22.560, -0.007, -0.001, 1, 0, -0.244, 0, -0.154, 0.275, -104.42, -43.414, -11.172, -25.186, 21.19, 0.6127, 0.00095, 0.00247, -0.79022,
 14:42:45.594,d3:c7:8d:a5:a9:b5, 2015-01-01 00:01:22.560, -0.004, -0.001, 1, 0, -0.244, 0, -0.154, 0.275, -104.42, -43.414, -11.172, -25.186, 21.19, 0.6127, 0.00095, 0.00247, -0.79022,
 14:42:45.655,d3:c7:8d:a5:a9:b5, 2015-01-01 00:01:22.560, -0.004, -0.001, 1, -0.061, -0.122, 0, -0.154, 0.269, -104.42, -43.414, -11.172, -25.186, 21.19, 0.6127, 0.00095, 0.00247, -0.79022,
 14:42:45.655,d3:c7:8d:a5:a9:b5, 2015-01-01 00:01:22.560, -0.004, -0.001, 1, -0.061, -0.122, 0, -0.154, 0.269, -104.42, -43.414, -11.172, -25.186, 21.19, 0.6127, 0.00095, 0.00247, -0.79022,
 14:42:45.655,d3:c7:8d:a5:a9:b5, 2015-01-01 00:01:22.560, -0.004, -0.001, 1.001, -0.122, 0.305, 0, -0.154, 0.269, -104.42, -43.414, -11.172, -25.186, 21.19, 0.6127, 0.00095, 0.00247, -0.79022,
 14:42:45.655,d3:c7:8d:a5:a9:b5, 2015-01-01 00:01:22.560, -0.008, -0.001, 1.001, -0.122, 0.305, 0, -0.154, 0.275, -104.42, -43.414, -11.172, -25.186, 21.19, 0.6127, 0.00095, 0.00247, -0.79022,
 14:42:45.655,d3:c7:8d:a5:a9:b5, 2015-01-01 00:01:22.560, -0.008, -0.002, 1, 0, 0.244, 0, -0.154, 0.28, -104.42, -43.414, -11.172, -25.186, 21.19, 0.6127, 0.00095, 0.00247, -0.79022,
 14:42:45.655,d3:c7:8d:a5:a9:b5, 2015-01-01 00:01:22.560, -0.008, -0.002, 1, 0, 0.244, 0, -0.154, 0.28, -104.42, -43.414, -11.172, -25.186, 21.19, 0.6127, 0.00095, 0.00247, -0.79022,
 14:42:45.655,d3:c7:8d:a5:a9:b5, 2015-01-01 00:01:22.560, -0.008, -0.002, 1.001, 0, -0.183, 0, -0.154, 0.28, -104.42, -43.414, -11.172, -25.186, 21.19, 0.6127, 0.00095, 0.00247, -0.79022,
 14:42:45.655,d3:c7:8d:a5:a9:b5, 2015-01-01 00:01:22.560, -0.003, -0.002, 1.001, 0, -0.183, 0, -0.154, 0.28, -104.42, -43.414, -11.172, -25.186, 21.19, 0.6127, 0.00095, 0.00247, -0.79022,
 14:42:45.714,d3:c7:8d:a5:a9:b5, 2015-01-01 00:01:22.560, -0.003, 0, 1.001, 0, -0.244, 0, -0.154, 0.28, -104.414, -43.414, -11.172, -25.186, 21.19, 0.6127, 0.00095, 0.00247, -0.79022,
 14:42:45.714,d3:c7:8d:a5:a9:b5, 2015-01-01 00:01:22.560, 0, 0, 1.001, 0, -0.244, 0, -0.154, 0.275, -104.414, -43.414, -11.172, -25.186, 21.19, 0.6127, 0.00095, 0.00247, -0.79022,
 14:42:45.714,d3:c7:8d:a5:a9:b5, 2015-01-01 00:01:22.560, 0, -0.001, 0.999, 0, 0.366, 0, -0.154, 0.275, -104.414, -43.414, -11.172, -25.186, 21.19, 0.6127, 0.00095, 0.00247, -0.79022,
 14:42:45.714,d3:c7:8d:a5:a9:b5, 2015-01-01 00:01:22.560, -0.005, -0.001, 0.999, 0, 0.366, 0, -0.154, 0.28, -104.414, -43.414, -11.172, -25.186, 21.19, 0.6127, 0.00095, 0.00247, -0.79022,
 14:42:45.744,d3:c7:8d:a5:a9:b5, 2015-01-01 00:01:22.560, -0.005, -0.001, 1.001, 0.122, 0.977, 0, -0.148, 0.286, -104.414, -43.512, -11.270, -25.088, 21.19, 0.6127, 0.00095, 0.00247, -0.79022,
 14:42:45.744,d3:c7:8d:a5:a9:b5, 2015-01-01 00:01:22.560, -0.011, -0.001, 1.001, 0.122, 0.977, 0, -0.148, 0.297, -104.414, -43.512, -11.270, -25.088, 21.19, 0.6127, 0.00095, 0.00247, -0.79022,
 14:42:45.744,d3:c7:8d:a5:a9:b5, 2015-01-01 00:01:22.560, -0.011, 0, 1.001, 0, 0.366, 0, -0.148, 0.302, -104.414, -43.512, -11.270, -25.088, 21.19, 0.6127, 0.00095, 0.00247, -0.79022,
 14:42:45.744,d3:c7:8d:a5:a9:b5, 2015-01-01 00:01:22.560, -0.01, 0, 1.001, 0, 0.366, 0, -0.148, 0.308, -104.414, -43.512, -11.270, -25.088, 21.19, 0.6127, 0.00095, 0.00247, -0.79022,
 14:42:45.774,d3:c7:8d:a5:a9:b5, 2015-01-01 00:01:22.560, -0.01, -0.002, 1.001, -0.061, -0.244, 0, -0.148, 0.308, -104.414, -43.512, -11.270, -25.088, 21.19, 0.6127, 0.00095, 0.00247, -0.79022,
 14:42:45.774,d3:c7:8d:a5:a9:b5, 2015-01-01 00:01:22.560, -0.006, -0.002, 1.001, -0.061, -0.244, 0, -0.148, 0.308, -104.414, -43.512, -11.270, -25.088, 21.19, 0.6127, 0.00095, 0.00247, -0.79022,
 14:42:45.774,d3:c7:8d:a5:a9:b5, 2015-01-01 00:01:22.560, -0.006, 0, 1.002, -0.122, -0.366, 0, -0.148, 0.302, -104.414, -43.512, -11.270, -25.088, 21.19, 0.6127, 0.00095, 0.00247, -0.79022,
 14:42:45.774,d3:c7:8d:a5:a9:b5, 2015-01-01 00:01:22.560, -0.003, 0, 1.002, -0.122, -0.366, 0, -0.148, 0.302, -104.414, -43.512, -11.270, -25.088, 21.19, 0.6127, 0.00095, 0.00247, -0.79022,
 14:42:45.834,d3:c7:8d:a5:a9:b5, 2015-01-01 00:01:22.560, -0.003, -0.001, 1, -0.244, -0.061, 0, -0.148, 0.302, -104.414, -43.512, -11.270, -25.088, 21.19, 0.61276, 0.00128, 0.00266, -0.79019,
 14:42:45.834,d3:c7:8d:a5:a9:b5, 2015-01-01 00:01:22.560, -0.005, -0.001, 1, -0.244, -0.061, 0, -0.154, 0.302, -104.414, -43.512, -11.270, -25.088, 21.19, 0.61276, 0.00128, 0.00266, -0.79019,
 14:42:45.834,d3:c7:8d:a5:a9:b5, 2015-01-01 00:01:22.560, -0.005, -0.002, 1, 0, 0.122, 0, -0.154, 0.302, -104.414, -43.512, -11.270, -25.088, 21.19, 0.61276, 0.00128, 0.00266, -0.79019,
 14:42:45.834,d3:c7:8d:a5:a9:b5, 2015-01-01 00:01:22.560, -0.007, -0.002, 1, 0, 0.122, 0, -0.154, 0.302, -104.414, -43.512, -11.270, -25.088, 21.19, 0.61276, 0.00128, 0.00266, -0.79019,
 14:42:45.863,d3:c7:8d:a5:a9:b5, 2015-01-01 00:01:22.885, -0.007, -0.001, 1, 0, -0.061, 0, -0.154, 0.302, -104.414, -43.512, -11.270, -25.088, 21.19, 0.61276, 0.00128, 0.00266, -0.79019,
 14:42:45.863,d3:c7:8d:a5:a9:b5, 2015-01-01 00:01:22.885, -0.006, -0.001, 1, 0, -0.061, 0, -0.148, 0.302, -104.414, -43.512, -11.270, -25.088, 21.19, 0.61276, 0.00128, 0.00266, -0.79019,
 14:42:45.863,d3:c7:8d:a5:a9:b5, 2015-01-01 00:01:22.885, -0.006, 0, 1.002, 0, -0.305, 0, -0.148, 0.302, -104.414, -43.512, -11.270, -25.088, 21.19, 0.61276, 0.00128, 0.00266, -0.79019,
 14:42:45.863,d3:c7:8d:a5:a9:b5, 2015-01-01 00:01:22.885, -0.005, 0, 1.002, 0, -0.305, 0, -0.148, 0.297, -104.414, -43.512, -11.270, -25.088, 21.19, 0.61276, 0.00128, 0.00266, -0.79019,
 14:42:45.893,d3:c7:8d:a5:a9:b5, 2015-01-01 00:01:22.885, -0.005, -0.001, 1, -0.122, -0.183, 0, -0.148, 0.297, -104.414, -43.512, -11.270, -25.088, 21.19, 0.61276, 0.00128, 0.00266, -0.79019,
 14:42:45.893,d3:c7:8d:a5:a9:b5, 2015-01-01 00:01:22.885, -0.003, -0.001, 1, -0.122, -0.183, 0, -0.154, 0.291, -104.414, -43.512, -11.270, -25.088, 21.19, 0.61276, 0.00128, 0.00266, -0.79019,
 14:42:45.893,d3:c7:8d:a5:a9:b5, 2015-01-01 00:01:22.885, -0.003, 0, 1.002, 0, 0.061, 0, -0.154, 0.297, -104.414, -43.512, -11.270, -25.088, 21.19, 0.61276, 0.00128, 0.00266, -0.79019,
 14:42:45.893,d3:c7:8d:a5:a9:b5, 2015-01-01 00:01:22.885, -0.005, 0, 1.002, 0, 0.061, 0, -0.148, 0.297, -104.414, -43.512, -11.270, -25.088, 21.19, 0.61276, 0.00128, 0.00266, -0.79019,
 14:42:45.953,d3:c7:8d:a5:a9:b5, 2015-01-01 00:01:22.885, -0.005, 0, 1, -0.122, 0.061, 0, -0.154, 0.297, -104.414, -43.512, -11.270, -25.088, 21.19, 0.61276, 0.00128, 0.00266, -0.79019,
 14:42:45.953,d3:c7:8d:a5:a9:b5, 2015-01-01 00:01:22.885, -0.007, 0, 1, -0.122, 0.061, 0, -0.154, 0.297, -104.414, -43.512, -11.270, -25.088, 21.19, 0.61276, 0.00128, 0.00266, -0.79019,
 14:42:45.953,d3:c7:8d:a5:a9:b5, 2015-01-01 00:01:22.885, -0.007, -0.002, 1, 0.061, 0, 0, -0.148, 0.297, -104.414, -43.512, -11.270, -25.088, 21.19, 0.61276, 0.00128, 0.00266, -0.79019,
 14:42:45.953,d3:c7:8d:a5:a9:b5, 2015-01-01 00:01:22.885, -0.005, -0.002, 1, 0.061, 0, 0, -0.148, 0.297, -104.414, -43.512, -11.270, -25.088, 21.19, 0.61276, 0.00128, 0.00266, -0.79019,
 14:42:45.984,d3:c7:8d:a5:a9:b5, 2015-01-01 00:01:22.885, -0.005, -0.001, 1.002, 0, 0, 0, -0.148, 0.297, -104.414, -43.512, -11.270, -25.088, 21.19, 0.61276, 0.00128, 0.00266, -0.79019,
 14:42:45.984,d3:c7:8d:a5:a9:b5, 2015-01-01 00:01:22.885, -0.003, -0.001, 1.002, 0, 0, 0, -0.148, 0.297, -104.414, -43.512, -11.270, -25.088, 21.19, 0.61276, 0.00128, 0.00266, -0.79019,
 14:42:45.984,d3:c7:8d:a5:a9:b5, 2015-01-01 00:01:22.885, -0.003, -0.002, 0.999, 0, 0.366, 0, -0.148, 0.302, -104.414, -43.512, -11.270, -25.088, 21.19, 0.61276, 0.00128, 0.00266, -0.79019,
 14:42:45.984,d3:c7:8d:a5:a9:b5, 2015-01-01 00:01:22.885, -0.005, -0.002, 0.999, 0, 0.366, 0, -0.148, 0.308, -104.414, -43.512, -11.270, -25.088, 21.19, 0.61276, 0.00128, 0.00266, -0.79019,
 14:42:46.014,d3:c7:8d:a5:a9:b5, 2015-01-01 00:01:22.885, -0.005, -0.001, 1.001, 0.122, 0.793, 0, -0.148, 0.313, -104.414, -43.512, -11.270, -25.088, 21.19, 0.61276, 0.00128, 0.00266, -0.79019,
 14:42:46.014,d3:c7:8d:a5:a9:b5, 2015-01-01 00:01:22.885, -0.007, -0.001, 1.001, 0.122, 0.793, 0, -0.143, 0.319, -104.414, -43.512, -11.270, -25.088, 21.19, 0.61276, 0.00128, 0.00266, -0.79019,
 14:42:46.014,d3:c7:8d:a5:a9:b5, 2015-01-01 00:01:22.885, -0.007, -0.002, 1, 0, 0.732, 0, -0.143, 0.33, -104.414, -43.512, -11.270, -25.088, 21.19, 0.61276, 0.00128, 0.00266, -0.79019,
 14:42:46.014,d3:c7:8d:a5:a9:b5, 2015-01-01 00:01:22.885, -0.007, -0.002, 1, 0, 0.732, 0, -0.143, 0.335, -104.414, -43.512, -11.270, -25.088, 21.19, 0.61276, 0.00128, 0.00266, -0.79019,
 14:42:46.075,d3:c7:8d:a5:a9:b5, 2015-01-01 00:01:22.885, -0.007, -0.001, 1, 0.244, 0.61, 0, -0.143, 0.341, -104.409, -43.512, -11.270, -25.088, 21.19, 0.61276, 0.00128, 0.00266, -0.79019,
 14:42:46.075,d3:c7:8d:a5:a9:b5, 2015-01-01 00:01:22.885, -0.01, -0.001, 1, 0.244, 0.61, 0, -0.137, 0.346, -104.409, -43.512, -11.270, -25.088, 21.19, 0.61276, 0.00128, 0.00266, -0.79019,
 14:42:46.075,d3:c7:8d:a5:a9:b5, 2015-01-01 00:01:22.885, -0.01, 0, 1.002, 0, 0.366, 0, -0.137, 0.352, -104.409, -43.512, -11.270, -25.088, 21.19, 0.61276, 0.00128, 0.00266, -0.79019,
 14:42:46.075,d3:c7:8d:a5:a9:b5, 2015-01-01 00:01:22.885, -0.007, 0, 1.002, 0, 0.366, 0, -0.137, 0.357, -104.409, -43.512, -11.270, -25.088, 21.19, 0.61276, 0.00128, 0.00266, -0.79019,
 14:42:46.104,d3:c7:8d:a5:a9:b5, 2015-01-01 00:01:22.885, -0.007, -0.001, 1.001, -0.061, 0, 0, -0.137, 0.357, -104.409, -43.512, -11.270, -25.186, 21.19, 0.61276, 0.00128, 0.00266, -0.79019,
 14:42:46.104,d3:c7:8d:a5:a9:b5, 2015-01-01 00:01:22.885, -0.005, -0.001, 1.001, -0.061, 0, 0, -0.137, 0.357, -104.409, -43.512, -11.270, -25.186, 21.19, 0.61276, 0.00128, 0.00266, -0.79019,
 14:42:46.104,d3:c7:8d:a5:a9:b5, 2015-01-01 00:01:22.885, -0.005, -0.001, 1, -0.122, 0.183, 0, -0.137, 0.357, -104.409, -43.512, -11.270, -25.186, 21.19, 0.61276, 0.00128, 0.00266, -0.79019,
 14:42:46.104,d3:c7:8d:a5:a9:b5, 2015-01-01 00:01:22.885, -0.007, -0.001, 1, -0.122, 0.183, 0, -0.143, 0.357, -104.409, -43.512, -11.270, -25.186, 21.19, 0.61276, 0.00128, 0.00266, -0.79019,
 14:42:46.134,d3:c7:8d:a5:a9:b5, 2015-01-01 00:01:22.885, -0.007, -0.002, 1, 0, 0.305, 0, -0.143, 0.363, -104.409, -43.512, -11.270, -25.186, 21.19, 0.61276, 0.00128, 0.00266, -0.79019,
 14:42:46.134,d3:c7:8d:a5:a9:b5, 2015-01-01 00:01:22.885, -0.007, -0.002, 1, 0, 0.305, 0, -0.137, 0.368, -104.409, -43.512, -11.270, -25.186, 21.19, 0.61276, 0.00128, 0.00266, -0.79019,
 14:42:46.134,d3:c7:8d:a5:a9:b5, 2015-01-01 00:01:22.885, -0.007, -0.001, 1.001, 0, 0.244, 0, -0.137, 0.368, -104.409, -43.512, -11.270, -25.186, 21.19, 0.61276, 0.00128, 0.00266, -0.79019,
 14:42:46.134,d3:c7:8d:a5:a9:b5, 2015-01-01 00:01:22.885, -0.008, -0.001, 1.001, 0, 0.244, 0, -0.137, 0.374, -104.409, -43.512, -11.270, -25.186, 21.19, 0.61276, 0.00128, 0.00266, -0.79019,
 14:42:46.194,d3:c7:8d:a5:a9:b5, 2015-01-01 00:01:22.885, -0.008, -0.001, 1.001, 0.061, 0.244, 0, -0.137, 0.374, -104.409, -43.512, -11.270, -25.186, 21.19, 0.61279, 0.0018, 0.00296, -0.79019,
 14:42:46.194,d3:c7:8d:a5:a9:b5, 2015-01-01 00:01:22.885, -0.008, -0.001, 1.001, 0.061, 0.244, 0, -0.137, 0.374, -104.409, -43.512, -11.270, -25.186, 21.19, 0.61279, 0.0018, 0.00296, -0.79019,
 14:42:46.194,d3:c7:8d:a5:a9:b5, 2015-01-01 00:01:22.885, -0.008, 0, 1.001, -0.061, 0.061, 0, -0.137, 0.379, -104.409, -43.512, -11.270, -25.186, 21.19, 0.61279, 0.0018, 0.00296, -0.79019,
 14:42:46.194,d3:c7:8d:a5:a9:b5, 2015-01-01 00:01:22.885, -0.008, 0, 1.001, -0.061, 0.061, 0, -0.137, 0.379, -104.409, -43.512, -11.270, -25.186, 21.19, 0.61279, 0.0018, 0.00296, -0.79019,
 14:42:46.224,d3:c7:8d:a5:a9:b5, 2015-01-01 00:01:23.245, -0.008, -0.001, 1.001, -0.061, 0, 0, -0.137, 0.379, -104.409, -43.512, -11.270, -25.186, 21.19, 0.61279, 0.0018, 0.00296, -0.79019,
 14:42:46.224,d3:c7:8d:a5:a9:b5, 2015-01-01 00:01:23.245, -0.008, -0.001, 1.001, -0.061, 0, 0, -0.137, 0.379, -104.409, -43.512, -11.270, -25.186, 21.19, 0.61279, 0.0018, 0.00296, -0.79019,
 14:42:46.224,d3:c7:8d:a5:a9:b5, 2015-01-01 00:01:23.245, -0.008, 0, 1.001, -0.061, -0.183, 0, -0.137, 0.379, -104.409, -43.512, -11.270, -25.186, 21.19, 0.61279, 0.0018, 0.00296, -0.79019,
 14:42:46.224,d3:c7:8d:a5:a9:b5, 2015-01-01 00:01:23.245, -0.006, 0, 1.001, -0.061, -0.183, 0, -0.137, 0.374, -104.409, -43.512, -11.270, -25.186, 21.19, 0.61279, 0.0018, 0.00296, -0.79019,
 14:42:46.254,d3:c7:8d:a5:a9:b5, 2015-01-01 00:01:23.245, -0.005, -0.001, 1, -0.183, -0.183, 0, -0.143, 0.374, -104.409, -43.512, -11.270, -25.186, 21.19, 0.61279, 0.0018, 0.00296, -0.79019,
 14:42:46.254,d3:c7:8d:a5:a9:b5, 2015-01-01 00:01:23.245, -0.005, -0.001, 1.002, -0.061, 0.061, 0, -0.143, 0.374, -104.409, -43.512, -11.270, -25.186, 21.19, 0.61279, 0.0018, 0.00296, -0.79019,
 14:42:46.254,d3:c7:8d:a5:a9:b5, 2015-01-01 00:01:23.245, -0.006, -0.001, 1.002, -0.061, 0.061, 0, -0.143, 0.374, -104.409, -43.512, -11.270, -25.186, 21.19, 0.61279, 0.0018, 0.00296, -0.79019,
 14:42:46.254,d3:c7:8d:a5:a9:b5, 2015-01-01 00:01:23.245, -0.006, 0, 1, -0.122, 0.305, 0, -0.143, 0.374, -104.409, -43.512, -11.270, -25.186, 21.19, 0.61279, 0.0018, 0.00296, -0.79019,
 14:42:46.313,d3:c7:8d:a5:a9:b5, 2015-01-01 00:01:23.245, -0.011, 0, 1, -0.122, 0.305, 0, -0.143, 0.379, -104.409, -43.512, -11.270, -25.186, 21.19, 0.61279, 0.0018, 0.00296, -0.79019,
 14:42:46.313,d3:c7:8d:a5:a9:b5, 2015-01-01 00:01:23.245, -0.011, 0, 1.002, -0.122, 0, 0, -0.143, 0.379, -104.409, -43.512, -11.270, -25.186, 21.19, 0.61279, 0.0018, 0.00296, -0.79019,
 14:42:46.313,d3:c7:8d:a5:a9:b5, 2015-01-01 00:01:23.245, -0.009, 0, 1.002, -0.122, 0, 0, -0.143, 0.379, -104.409, -43.512, -11.270, -25.186, 21.19, 0.61279, 0.0018, 0.00296, -0.79019,
 14:42:46.313,d3:c7:8d:a5:a9:b5, 2015-01-01 00:01:23.245, -0.009, -0.001, 1, -0.305, -0.488, 0, -0.143, 0.379, -104.409, -43.512, -11.270, -25.186, 21.19, 0.61279, 0.0018, 0.00296, -0.79019,
 14:42:46.344,d3:c7:8d:a5:a9:b5, 2015-01-01 00:01:23.245, -0.003, -0.001, 1, -0.305, -0.488, 0, -0.148, 0.374, -104.409, -43.512, -11.270, -25.186, 21.19, 0.61279, 0.0018, 0.00296, -0.79019,
 14:42:46.344,d3:c7:8d:a5:a9:b5, 2015-01-01 00:01:23.245, -0.003, -0.002, 1.001, -0.183, -0.183, 0, -0.148, 0.374, -104.409, -43.512, -11.270, -25.186, 21.19, 0.61279, 0.0018, 0.00296, -0.79019,
 14:42:46.344,d3:c7:8d:a5:a9:b5, 2015-01-01 00:01:23.245, -0.007, -0.002, 1.001, -0.183, -0.183, 0, -0.154, 0.368, -104.409, -43.512, -11.270, -25.186, 21.19, 0.61279, 0.0018, 0.00296, -0.79019,
 14:42:46.344,d3:c7:8d:a5:a9:b5, 2015-01-01 00:01:23.245, -0.007, -0.001, 1.001, 0, 0, 0, -0.154, 0.368, -104.409, -43.512, -11.270, -25.186, 21.19, 0.61279, 0.0018, 0.00296, -0.79019,
 14:42:46.374,d3:c7:8d:a5:a9:b5, 2015-01-01 00:01:23.245, -0.009, -0.001, 1.001, 0, 0, 0, -0.154, 0.368, -104.409, -43.512, -11.270, -25.186, 21.19, 0.61279, 0.0018, 0.00296, -0.79019,
 14:42:46.374,d3:c7:8d:a5:a9:b5, 2015-01-01 00:01:23.245, -0.009, 0, 1.001, -0.061, -0.183, 0, -0.154, 0.368, -104.409, -43.512, -11.270, -25.186, 21.19, 0.61279, 0.0018, 0.00296, -0.79019,
 14:42:46.374,d3:c7:8d:a5:a9:b5, 2015-01-01 00:01:23.245, -0.005, 0, 1.001, -0.061, -0.183, 0, -0.154, 0.368, -104.409, -43.512, -11.270, -25.186, 21.19, 0.61279, 0.0018, 0.00296, -0.79019,
 14:42:46.374,d3:c7:8d:a5:a9:b5, 2015-01-01 00:01:23.245, -0.005, -0.001, 1, -0.183, -0.183, 0, -0.154, 0.368, -104.409, -43.512, -11.270, -25.186, 21.19, 0.61279, 0.0018, 0.00296, -0.79019,
 14:42:46.463,d3:c7:8d:a5:a9:b5, 2015-01-01 00:01:23.245, -0.006, -0.001, 1, -0.183, -0.183, 0, -0.154, 0.363, -104.409, -43.512, -11.270, -25.186, 21.19, 0.61279, 0.0018, 0.00296, -0.79019,
 14:42:46.463,d3:c7:8d:a5:a9:b5, 2015-01-01 00:01:23.245, -0.006, -0.001, 1, 0, 0, 0, -0.154, 0.363, -104.409, -43.512, -11.270, -25.186, 21.19, 0.61279, 0.0018, 0.00296, -0.79019,
 14:42:46.463,d3:c7:8d:a5:a9:b5, 2015-01-01 00:01:23.245, -0.008, -0.001, 1, 0, 0, 0, -0.154, 0.363, -104.409, -43.512, -11.270, -25.186, 21.19, 0.61279, 0.0018, 0.00296, -0.79019,
 14:42:46.463,d3:c7:8d:a5:a9:b5, 2015-01-01 00:01:23.245, -0.008, -0.001, 1.002, 0, -0.061, 0, -0.154, 0.363, -104.409, -43.512, -11.270, -25.186, 21.19, 0.61279, 0.0018, 0.00296, -0.79019,
 14:42:46.463,d3:c7:8d:a5:a9:b5, 2015-01-01 00:01:23.245, -0.005, -0.001, 1.002, 0, -0.061, 0, -0.154, 0.363, -104.409, -43.512, -11.270, -25.186, 21.19, 0.61279, 0.0018, 0.00296, -0.79019,
 14:42:46.463,d3:c7:8d:a5:a9:b5, 2015-01-01 00:01:23.245, -0.005, 0, 1.001, -0.183, 0.061, 0, -0.154, 0.363, -104.409, -43.512, -11.270, -25.186, 21.19, 0.61279, 0.0018, 0.00296, -0.79019,
 14:42:46.463,d3:c7:8d:a5:a9:b5, 2015-01-01 00:01:23.245, -0.004, 0, 1.001, -0.183, 0.061, 0, -0.154, 0.363, -104.409, -43.512, -11.270, -25.186, 21.19, 0.61279, 0.0018, 0.00296, -0.79019,
 14:42:46.463,d3:c7:8d:a5:a9:b5, 2015-01-01 00:01:23.245, -0.004, -0.002, 1.001, -0.122, 0.549, 0, -0.154, 0.368, -104.409, -43.512, -11.270, -25.186, 21.19, 0.61279, 0.0018, 0.00296, -0.79019,
 14:42:46.493,d3:c7:8d:a5:a9:b5, 2015-01-01 00:01:23.245, -0.006, -0.002, 1.001, -0.122, 0.549, 0, -0.154, 0.374, -104.409, -43.414, -11.172, -25.382, 21.19, 0.61279, 0.0018, 0.00296, -0.79019,
 14:42:46.493,d3:c7:8d:a5:a9:b5, 2015-01-01 00:01:23.245, -0.006, -0.001, 1, -0.305, 1.038, 0, -0.159, 0.379, -104.409, -43.414, -11.172, -25.382, 21.19, 0.61279, 0.0018, 0.00296, -0.79019,
 14:42:46.493,d3:c7:8d:a5:a9:b5, 2015-01-01 00:01:23.245, -0.008, -0.001, 1, -0.305, 1.038, 0, -0.159, 0.39, -104.403, -43.414, -11.172, -25.382, 21.19, 0.61279, 0.0018, 0.00296, -0.79019,
 14:42:46.493,d3:c7:8d:a5:a9:b5, 2015-01-01 00:01:23.245, -0.008, -0.003, 1, -0.061, 1.038, 0, -0.159, 0.401, -104.403, -43.414, -11.172, -25.382, 21.19, 0.61279, 0.0018, 0.00296, -0.79019,
 14:42:46.555,d3:c7:8d:a5:a9:b5, 2015-01-01 00:01:23.245, -0.011, -0.003, 1, -0.061, 1.038, 0, -0.159, 0.412, -104.403, -43.414, -11.172, -25.382, 21.19, 0.61279, 0.0018, 0.00296, -0.79019,
 14:42:46.555,d3:c7:8d:a5:a9:b5, 2015-01-01 00:01:23.245, -0.011, -0.001, 1.001, 0.061, 0.488, 0, -0.159, 0.417, -104.403, -43.414, -11.172, -25.382, 21.19, 0.61279, 0.0018, 0.00296, -0.79019,
 14:42:46.555,d3:c7:8d:a5:a9:b5, 2015-01-01 00:01:23.245, -0.009, -0.001, 1.001, 0.061, 0.488, 0, -0.159, 0.423, -104.403, -43.414, -11.172, -25.382, 21.19, 0.61279, 0.0018, 0.00296, -0.79019,
 14:42:46.555,d3:c7:8d:a5:a9:b5, 2015-01-01 00:01:23.245, -0.009, 0, 1.001, -0.183, 0.183, 0, -0.159, 0.428, -104.403, -43.414, -11.172, -25.382, 21.19, 0.61279, 0.0018, 0.00296, -0.79019,
 14:42:46.583,d3:c7:8d:a5:a9:b5, 2015-01-01 00:01:23.245, -0.006, 0, 1.001, -0.183, 0.183, 0, -0.159, 0.428, -104.403, -43.414, -11.172, -25.382, 21.19, 0.61282, 0.00201, 0.00336, -0.79016,
 14:42:46.583,d3:c7:8d:a5:a9:b5, 2015-01-01 00:01:23.245, -0.006, -0.002, 1.001, -0.244, 0.244, 0, -0.165, 0.434, -104.403, -43.414, -11.172, -25.382, 21.19, 0.61282, 0.00201, 0.00336, -0.79016,
