Time,Device name,Chip Time(),Acceleration X(g),Acceleration Y(g),Acceleration Z(g),Angular velocity X(°/s),Angular velocity Y(°/s),Angular velocity Z(°/s),Angle X(°),Angle Y(°),Angle Z(°),Magnetic field X(ʯt),Magnetic field Y(ʯt),Magnetic field Z(ʯt),Temperature(℃),Quaternions 0(),Quaternions 1(),Quaternions 2(),Quaternions 3()
 15:04:53.894,d3:c7:8d:a5:a9:b5, 2015-01-01 00:05:34.705, -0.046, 0.013, 0.987, -1.526, 0.488, -0.244, 0.659, 2.802, -94.532, -42.042, -3.724, -23.422, 23.43, 0.67844, 0.02347, 0.01172, -0.7341,
 15:04:53.896,d3:c7:8d:a5:a9:b5, 2015-01-01 00:05:34.705, -0.046, 0.012, 0.987, -1.587, 0.488, -0.183, 0.648, 2.807, -94.532, -42.042, -3.724, -23.422, 23.43, 0.67844, 0.02347, 0.01172, -0.7341,
 15:04:53.896,d3:c7:8d:a5:a9:b5, 2015-01-01 00:05:34.705, -0.048, 0.012, 0.987, -1.587, 0.488, -0.183, 0.632, 2.812, -94.532, -42.042, -3.724, -23.422, 23.43, 0.67844, 0.02347, 0.01172, -0.7341,
 15:04:53.896,d3:c7:8d:a5:a9:b5, 2015-01-01 00:05:34.705, -0.048, 0.01, 0.987, -1.587, 0.61, -0.122, 0.615, 2.818, -94.532, -42.042, -3.724, -23.422, 23.43, 0.67844, 0.02347, 0.01172, -0.7341,
 15:04:53.953,d3:c7:8d:a5:a9:b5, 2015-01-01 00:05:34.705, -0.048, 0.01, 0.987, -1.587, 0.61, -0.122, 0.599, 2.823, -94.532, -42.042, -3.724, -23.422, 23.43, 0.67844, 0.02347, 0.01172, -0.7341,
 15:04:53.953,d3:c7:8d:a5:a9:b5, 2015-01-01 00:05:34.705, -0.048, 0.008, 0.985, -1.221, 0.427, -0.061, 0.588, 2.823, -94.532, -42.042, -3.724, -23.422, 23.43, 0.67844, 0.02347, 0.01172, -0.7341,
 15:04:53.953,d3:c7:8d:a5:a9:b5, 2015-01-01 00:05:34.705, -0.047, 0.008, 0.985, -1.221, 0.427, -0.061, 0.577, 2.829, -94.532, -42.042, -3.724, -23.422, 23.43, 0.67844, 0.02347, 0.01172, -0.7341,
 15:04:53.953,d3:c7:8d:a5:a9:b5, 2015-01-01 00:05:34.705, -0.047, 0.01, 0.989, -0.916, 0.427, -0.061, 0.571, 2.834, -94.532, -42.042, -3.724, -23.422, 23.43, 0.67844, 0.02347, 0.01172, -0.7341,
 15:04:53.982,d3:c7:8d:a5:a9:b5, 2015-01-01 00:05:34.705, -0.047, 0.01, 0.989, -0.916, 0.427, -0.061, 0.56, 2.834, -94.532, -42.042, -3.724, -23.422, 23.43, 0.67844, 0.02347, 0.01172, -0.7341,
 15:04:53.982,d3:c7:8d:a5:a9:b5, 2015-01-01 00:05:34.705, -0.047, 0.008, 0.988, -0.61, 0.549, 0, 0.555, 2.84, -94.526, -42.042, -3.724, -23.422, 23.43, 0.67844, 0.02347, 0.01172, -0.7341,
 15:04:53.982,d3:c7:8d:a5:a9:b5, 2015-01-01 00:05:34.705, -0.05, 0.008, 0.988, -0.61, 0.549, 0, 0.549, 2.845, -94.526, -42.042, -3.724, -23.422, 23.43, 0.67844, 0.02347, 0.01172, -0.7341,
 15:04:53.982,d3:c7:8d:a5:a9:b5, 2015-01-01 00:05:34.705, -0.05, 0.008, 0.988, -0.061, 0.366, 0, 0.549, 2.845, -94.526, -42.042, -3.724, -23.422, 23.43, 0.67844, 0.02347, 0.01172, -0.7341,
 15:04:54.012,d3:c7:8d:a5:a9:b5, 2015-01-01 00:05:34.705, -0.051, 0.008, 0.988, -0.061, 0.366, 0, 0.549, 2.851, -94.526, -42.042, -3.528, -23.422, 23.43, 0.67844, 0.02347, 0.01172, -0.7341,
 15:04:54.012,d3:c7:8d:a5:a9:b5, 2015-01-01 00:05:34.705, -0.051, 0.01, 0.985, -0.061, 0, 0, 0.549, 2.851, -94.521, -42.042, -3.528, -23.422, 23.43, 0.67844, 0.02347, 0.01172, -0.7341,
 15:04:54.012,d3:c7:8d:a5:a9:b5, 2015-01-01 00:05:34.705, -0.051, 0.01, 0.985, -0.061, 0, 0, 0.549, 2.851, -94.521, -42.042, -3.528, -23.422, 23.43, 0.67844, 0.02347, 0.01172, -0.7341,
 15:04:54.012,d3:c7:8d:a5:a9:b5, 2015-01-01 00:05:34.705, -0.051, 0.009, 0.988, 0, -0.488, 0, 0.549, 2.845, -94.521, -42.042, -3.528, -23.422, 23.43, 0.67844, 0.02347, 0.01172, -0.7341,
 15:04:54.073,d3:c7:8d:a5:a9:b5, 2015-01-01 00:05:34.705, -0.046, 0.009, 0.988, 0, -0.488, 0, 0.549, 2.84, -94.521, -42.042, -3.528, -23.422, 23.43, 0.67844, 0.02347, 0.01172, -0.7341,
 15:04:54.073,d3:c7:8d:a5:a9:b5, 2015-01-01 00:05:34.705, -0.046, 0.01, 0.987, -0.061, -0.671, 0, 0.549, 2.834, -94.521, -42.042, -3.528, -23.422, 23.43, 0.67844, 0.02347, 0.01172, -0.7341,
 15:04:54.073,d3:c7:8d:a5:a9:b5, 2015-01-01 00:05:34.705, -0.042, 0.01, 0.987, -0.061, -0.671, 0, 0.549, 2.829, -94.515, -42.042, -3.528, -23.422, 23.43, 0.67844, 0.02347, 0.01172, -0.7341,
 15:04:54.073,d3:c7:8d:a5:a9:b5, 2015-01-01 00:05:34.705, -0.045, 0.01, 0.987, -0.061, -0.305, 0, 0.549, 2.823, -94.515, -42.042, -3.528, -23.422, 23.43, 0.67844, 0.02347, 0.01172, -0.7341,
 15:04:54.103,d3:c7:8d:a5:a9:b5, 2015-01-01 00:05:34.705, -0.045, 0.009, 0.988, 0.122, 0.244, 0, 0.549, 2.823, -94.515, -42.042, -3.528, -23.422, 23.43, 0.67831, 0.02142, 0.01324, -0.73425,
 15:04:54.103,d3:c7:8d:a5:a9:b5, 2015-01-01 00:05:34.705, -0.051, 0.009, 0.988, 0.122, 0.244, 0, 0.549, 2.823, -94.515, -42.042, -3.528, -23.422, 23.43, 0.67831, 0.02142, 0.01324, -0.73425,
 15:04:54.103,d3:c7:8d:a5:a9:b5, 2015-01-01 00:05:34.705, -0.051, 0.009, 0.983, 0.183, 0.183, 0, 0.555, 2.823, -94.515, -42.042, -3.528, -23.422, 23.43, 0.67831, 0.02142, 0.01324, -0.73425,
 15:04:54.103,d3:c7:8d:a5:a9:b5, 2015-01-01 00:05:34.705, -0.049, 0.009, 0.983, 0.183, 0.183, 0, 0.555, 2.829, -94.515, -42.042, -3.528, -23.422, 23.43, 0.67831, 0.02142, 0.01324, -0.73425,
 15:04:54.162,d3:c7:8d:a5:a9:b5, 2015-01-01 00:05:34.705, -0.049, 0.01, 0.987, 0, -0.122, 0, 0.555, 2.829, -94.51, -42.042, -3.528, -23.422, 23.43, 0.67831, 0.02142, 0.01324, -0.73425,
 15:04:54.162,d3:c7:8d:a5:a9:b5, 2015-01-01 00:05:34.705, -0.047, 0.01, 0.987, 0, -0.122, 0, 0.555, 2.823, -94.51, -42.042, -3.528, -23.422, 23.43, 0.67831, 0.02142, 0.01324, -0.73425,
 15:04:54.162,d3:c7:8d:a5:a9:b5, 2015-01-01 00:05:34.705, -0.047, 0.009, 0.987, 0, -0.122, 0, 0.555, 2.823, -94.51, -42.042, -3.528, -23.422, 23.43, 0.67831, 0.02142, 0.01324, -0.73425,
 15:04:54.162,d3:c7:8d:a5:a9:b5, 2015-01-01 00:05:34.705, -0.047, 0.009, 0.987, 0, -0.122, 0, 0.555, 2.823, -94.51, -42.042, -3.528, -23.422, 23.43, 0.67831, 0.02142, 0.01324, -0.73425,
 15:04:54.193,d3:c7:8d:a5:a9:b5, 2015-01-01 00:05:35.060, -0.047, 0.009, 0.986, 0, -0.122, 0, 0.555, 2.823, -94.51, -42.042, -3.528, -23.422, 23.43, 0.67831, 0.02142, 0.01324, -0.73425,
 15:04:54.193,d3:c7:8d:a5:a9:b5, 2015-01-01 00:05:35.060, -0.046, 0.009, 0.986, 0, -0.122, 0, 0.555, 2.818, -94.51, -42.042, -3.528, -23.422, 23.43, 0.67831, 0.02142, 0.01324, -0.73425,
 15:04:54.193,d3:c7:8d:a5:a9:b5, 2015-01-01 00:05:35.060, -0.046, 0.01, 0.986, 0.122, -0.122, 0, 0.56, 2.818, -94.504, -42.042, -3.528, -23.422, 23.43, 0.67831, 0.02142, 0.01324, -0.73425,
 15:04:54.193,d3:c7:8d:a5:a9:b5, 2015-01-01 00:05:35.060, -0.047, 0.01, 0.986, 0.122, -0.122, 0, 0.56, 2.818, -94.504, -42.042, -3.528, -23.422, 23.43, 0.67831, 0.02142, 0.01324, -0.73425,
 15:04:54.222,d3:c7:8d:a5:a9:b5, 2015-01-01 00:05:35.060, -0.047, 0.01, 0.986, -0.061, 0, 0, 0.56, 2.818, -94.504, -42.042, -3.528, -23.422, 23.43, 0.67831, 0.02142, 0.01324, -0.73425,
 15:04:54.222,d3:c7:8d:a5:a9:b5, 2015-01-01 00:05:35.060, -0.047, 0.01, 0.986, -0.061, 0, 0, 0.56, 2.818, -94.504, -42.042, -3.528, -23.422, 23.43, 0.67831, 0.02142, 0.01324, -0.73425,
 15:04:54.222,d3:c7:8d:a5:a9:b5, 2015-01-01 00:05:35.060, -0.047, 0.01, 0.985, -0.122, 0, 0, 0.56, 2.818, -94.504, -42.042, -3.528, -23.422, 23.43, 0.67831, 0.02142, 0.01324, -0.73425,
 15:04:54.222,d3:c7:8d:a5:a9:b5, 2015-01-01 00:05:35.060, -0.047, 0.01, 0.985, -0.122, 0, 0, 0.555, 2.818, -94.504, -42.042, -3.528, -23.422, 23.43, 0.67831, 0.02142, 0.01324, -0.73425,
 15:04:54.253,d3:c7:8d:a5:a9:b5, 2015-01-01 00:05:35.060, -0.047, 0.011, 0.988, -0.183, 0, 0, 0.555, 2.812, -94.504, -42.042, -3.528, -23.422, 23.43, 0.67831, 0.02142, 0.01324, -0.73425,
 15:04:54.253,d3:c7:8d:a5:a9:b5, 2015-01-01 00:05:35.060, -0.048, 0.011, 0.988, -0.183, 0, 0, 0.555, 2.812, -94.499, -42.042, -3.528, -23.422, 23.43, 0.67831, 0.02142, 0.01324, -0.73425,
 15:04:54.253,d3:c7:8d:a5:a9:b5, 2015-01-01 00:05:35.060, -0.048, 0.009, 0.986, -0.122, 0.183, 0, 0.555, 2.812, -94.499, -42.042, -3.528, -23.422, 23.43, 0.67831, 0.02142, 0.01324, -0.73425,
 15:04:54.253,d3:c7:8d:a5:a9:b5, 2015-01-01 00:05:35.060, -0.048, 0.009, 0.986, -0.122, 0.183, 0, 0.549, 2.818, -94.499, -42.042, -3.528, -23.422, 23.43, 0.67831, 0.02142, 0.01324, -0.73425,
 15:04:54.343,d3:c7:8d:a5:a9:b5, 2015-01-01 00:05:35.060, -0.048, 0.01, 0.987, 0, 0.061, 0, 0.549, 2.818, -94.499, -42.042, -3.528, -23.422, 23.43, 0.67831, 0.02142, 0.01324, -0.73425,
 15:04:54.343,d3:c7:8d:a5:a9:b5, 2015-01-01 00:05:35.060, -0.047, 0.01, 0.987, 0, 0.061, 0, 0.549, 2.818, -94.493, -42.042, -3.528, -23.422, 23.43, 0.67831, 0.02142, 0.01324, -0.73425,
 15:04:54.343,d3:c7:8d:a5:a9:b5, 2015-01-01 00:05:35.060, -0.047, 0.008, 0.986, 0, 0.061, 0, 0.549, 2.818, -94.493, -42.042, -3.528, -23.422, 23.43, 0.67831, 0.02142, 0.01324, -0.73425,
 15:04:54.343,d3:c7:8d:a5:a9:b5, 2015-01-01 00:05:35.060, -0.048, 0.008, 0.986, 0, 0.061, 0, 0.549, 2.818, -94.493, -42.042, -3.528, -23.422, 23.43, 0.67831, 0.02142, 0.01324, -0.73425,
 15:04:54.345,d3:c7:8d:a5:a9:b5, 2015-01-01 00:05:35.060, -0.048, 0.01, 0.986, 0.122, 0.122, 0, 0.549, 2.818, -94.493, -42.042, -3.528, -23.422, 23.43, 0.67831, 0.02142, 0.01324, -0.73425,
 15:04:54.345,d3:c7:8d:a5:a9:b5, 2015-01-01 00:05:35.060, -0.048, 0.01, 0.986, 0.122, 0.122, 0, 0.555, 2.818, -94.493, -42.042, -3.528, -23.422, 23.43, 0.67831, 0.02142, 0.01324, -0.73425,
 15:04:54.345,d3:c7:8d:a5:a9:b5, 2015-01-01 00:05:35.060, -0.048, 0.011, 0.986, 0, 0.122, 0, 0.555, 2.823, -94.488, -42.042, -3.528, -23.422, 23.43, 0.67831, 0.02142, 0.01324, -0.73425,
 15:04:54.345,d3:c7:8d:a5:a9:b5, 2015-01-01 00:05:35.060, -0.048, 0.011, 0.986, 0, 0.122, 0, 0.555, 2.823, -94.488, -42.042, -3.528, -23.422, 23.43, 0.67831, 0.02142, 0.01324, -0.73425,
 15:04:54.373,d3:c7:8d:a5:a9:b5, 2015-01-01 00:05:35.060, -0.048, 0.011, 0.986, -0.061, 0, 0, 0.555, 2.823, -94.488, -42.042, -3.528, -23.422, 23.43, 0.67831, 0.02142, 0.01324, -0.73425,
 15:04:54.373,d3:c7:8d:a5:a9:b5, 2015-01-01 00:05:35.060, -0.048, 0.011, 0.986, -0.061, 0, 0, 0.555, 2.823, -94.488, -42.042, -3.528, -23.422, 23.43, 0.67831, 0.02142, 0.01324, -0.73425,
 15:04:54.373,d3:c7:8d:a5:a9:b5, 2015-01-01 00:05:35.060, -0.048, 0.01, 0.986, -0.183, -0.122, 0, 0.549, 2.823, -94.488, -42.042, -3.528, -23.422, 23.43, 0.67831, 0.02142, 0.01324, -0.73425,
 15:04:54.373,d3:c7:8d:a5:a9:b5, 2015-01-01 00:05:35.060, -0.046, 0.01, 0.986, -0.183, -0.122, 0, 0.549, 2.818, -94.488, -42.042, -3.528, -23.422, 23.43, 0.67831, 0.02142, 0.01324, -0.73425,
 15:04:54.433,d3:c7:8d:a5:a9:b5, 2015-01-01 00:05:35.060, -0.046, 0.008, 0.987, -0.061, -0.061, 0, 0.549, 2.818, -94.488, -42.140, -3.528, -23.422, 23.43, 0.67831, 0.02142, 0.01324, -0.73425,
 15:04:54.433,d3:c7:8d:a5:a9:b5, 2015-01-01 00:05:35.060, -0.045, 0.008, 0.987, -0.061, -0.061, 0, 0.549, 2.818, -94.488, -42.140, -3.528, -23.422, 23.43, 0.67831, 0.02142, 0.01324, -0.73425,
 15:04:54.433,d3:c7:8d:a5:a9:b5, 2015-01-01 00:05:35.060, -0.045, 0.009, 0.987, 0.122, 0.122, 0, 0.549, 2.818, -94.488, -42.140, -3.528, -23.422, 23.43, 0.67831, 0.02142, 0.01324, -0.73425,
 15:04:54.433,d3:c7:8d:a5:a9:b5, 2015-01-01 00:05:35.060, -0.049, 0.009, 0.987, 0.122, 0.122, 0, 0.549, 2.818, -94.482, -42.140, -3.528, -23.422, 23.43, 0.67831, 0.02142, 0.01324, -0.73425,
 15:04:54.463,d3:c7:8d:a5:a9:b5, 2015-01-01 00:05:35.060, -0.049, 0.01, 0.986, 0.061, 0.244, 0, 0.549, 2.818, -94.482, -42.140, -3.528, -23.422, 23.43, 0.67856, 0.02136, 0.01315, -0.73407,
 15:04:54.463,d3:c7:8d:a5:a9:b5, 2015-01-01 00:05:35.060, -0.049, 0.01, 0.986, 0.061, 0.244, 0, 0.549, 2.823, -94.482, -42.140, -3.528, -23.422, 23.43, 0.67856, 0.02136, 0.01315, -0.73407,
 15:04:54.463,d3:c7:8d:a5:a9:b5, 2015-01-01 00:05:35.060, -0.049, 0.011, 0.986, 0, 0, 0, 0.555, 2.823, -94.482, -42.140, -3.528, -23.422, 23.43, 0.67856, 0.02136, 0.01315, -0.73407,
 15:04:54.463,d3:c7:8d:a5:a9:b5, 2015-01-01 00:05:35.060, -0.048, 0.011, 0.986, 0, 0, 0, 0.555, 2.823, -94.482, -42.140, -3.528, -23.422, 23.43, 0.67856, 0.02136, 0.01315, -0.73407,
 15:04:54.493,d3:c7:8d:a5:a9:b5, 2015-01-01 00:05:35.060, -0.048, 0.008, 0.987, 0, -0.061, 0, 0.555, 2.823, -94.482, -42.140, -3.528, -23.422, 23.43, 0.67856, 0.02136, 0.01315, -0.73407,
 15:04:54.493,d3:c7:8d:a5:a9:b5, 2015-01-01 00:05:35.060, -0.045, 0.008, 0.987, 0, -0.061, 0, 0.555, 2.823, -94.482, -42.140, -3.528, -23.422, 23.43, 0.67856, 0.02136, 0.01315, -0.73407,
 15:04:54.493,d3:c7:8d:a5:a9:b5, 2015-01-01 00:05:35.060, -0.045, 0.009, 0.988, 0.305, 0.122, 0, 0.555, 2.823, -94.482, -42.140, -3.528, -23.422, 23.43, 0.67856, 0.02136, 0.01315, -0.73407,
 15:04:54.493,d3:c7:8d:a5:a9:b5, 2015-01-01 00:05:35.060, -0.048, 0.009, 0.988, 0.305, 0.122, 0, 0.555, 2.823, -94.482, -42.140, -3.528, -23.422, 23.43, 0.67856, 0.02136, 0.01315, -0.73407,
 15:04:54.583,d3:c7:8d:a5:a9:b5, 2015-01-01 00:05:35.420, -0.048, 0.008, 0.986, 0.671, 0.305, 0, 0.566, 2.823, -94.482, -42.140, -3.528, -23.422, 23.43, 0.67856, 0.02136, 0.01315, -0.73407,
 15:04:54.583,d3:c7:8d:a5:a9:b5, 2015-01-01 00:05:35.420, -0.05, 0.008, 0.986, 0.671, 0.305, 0, 0.571, 2.829, -94.482, -42.140, -3.528, -23.422, 23.43, 0.67856, 0.02136, 0.01315, -0.73407,
 15:04:54.583,d3:c7:8d:a5:a9:b5, 2015-01-01 00:05:35.420, -0.05, 0.011, 0.984, 0.366, 0.305, 0, 0.571, 2.829, -94.482, -42.140, -3.528, -23.422, 23.43, 0.67856, 0.02136, 0.01315, -0.73407,
 15:04:54.583,d3:c7:8d:a5:a9:b5, 2015-01-01 00:05:35.420, -0.052, 0.011, 0.984, 0.366, 0.305, 0, 0.577, 2.834, -94.477, -42.140, -3.528, -23.422, 23.43, 0.67856, 0.02136, 0.01315, -0.73407,
 15:04:54.584,d3:c7:8d:a5:a9:b5, 2015-01-01 00:05:35.420, -0.052, 0.013, 0.985, -0.061, -0.122, 0, 0.577, 2.834, -94.477, -42.140, -3.528, -23.422, 23.43, 0.67856, 0.02136, 0.01315, -0.73407,
 15:04:54.584,d3:c7:8d:a5:a9:b5, 2015-01-01 00:05:35.420, -0.049, 0.013, 0.985, -0.061, -0.122, 0, 0.577, 2.829, -94.477, -42.140, -3.528, -23.422, 23.43, 0.67856, 0.02136, 0.01315, -0.73407,
 15:04:54.584,d3:c7:8d:a5:a9:b5, 2015-01-01 00:05:35.420, -0.049, 0.013, 0.986, -0.671, -0.366, 0, 0.571, 2.829, -94.477, -42.140, -3.528, -23.422, 23.43, 0.67856, 0.02136, 0.01315, -0.73407,
 15:04:54.584,d3:c7:8d:a5:a9:b5, 2015-01-01 00:05:35.420, -0.044, 0.013, 0.986, -0.671, -0.366, 0, 0.566, 2.823, -94.477, -42.140, -3.528, -23.422, 23.43, 0.67856, 0.02136, 0.01315, -0.73407,
 15:04:54.613,d3:c7:8d:a5:a9:b5, 2015-01-01 00:05:35.420, -0.044, 0.008, 0.987, -0.549, -0.244, 0, 0.56, 2.823, -94.477, -42.140, -3.528, -23.422, 23.43, 0.67856, 0.02136, 0.01315, -0.73407,
 15:04:54.613,d3:c7:8d:a5:a9:b5, 2015-01-01 00:05:35.420, -0.043, 0.008, 0.987, -0.549, -0.244, 0, 0.555, 2.818, -94.477, -42.140, -3.528, -23.422, 23.43, 0.67856, 0.02136, 0.01315, -0.73407,
 15:04:54.613,d3:c7:8d:a5:a9:b5, 2015-01-01 00:05:35.420, -0.043, 0.007, 0.988, 0, 0.183, 0, 0.555, 2.818, -94.477, -42.140, -3.528, -23.422, 23.43, 0.67856, 0.02136, 0.01315, -0.73407,
 15:04:54.613,d3:c7:8d:a5:a9:b5, 2015-01-01 00:05:35.420, -0.046, 0.007, 0.988, 0, 0.183, 0, 0.555, 2.823, -94.471, -42.140, -3.528, -23.422, 23.43, 0.67856, 0.02136, 0.01315, -0.73407,
 15:04:54.673,d3:c7:8d:a5:a9:b5, 2015-01-01 00:05:35.420, -0.046, 0.008, 0.986, 0.366, 0.671, 0, 0.555, 2.829, -94.471, -42.140, -3.528, -23.422, 23.43, 0.67856, 0.02136, 0.01315, -0.73407,
 15:04:54.673,d3:c7:8d:a5:a9:b5, 2015-01-01 00:05:35.420, -0.052, 0.008, 0.986, 0.366, 0.671, 0, 0.56, 2.834, -94.471, -42.140, -3.528, -23.422, 23.43, 0.67856, 0.02136, 0.01315, -0.73407,
 15:04:54.673,d3:c7:8d:a5:a9:b5, 2015-01-01 00:05:35.420, -0.052, 0.01, 0.986, 0.488, 0.488, 0, 0.566, 2.84, -94.471, -42.140, -3.528, -23.422, 23.43, 0.67856, 0.02136, 0.01315, -0.73407,
 15:04:54.673,d3:c7:8d:a5:a9:b5, 2015-01-01 00:05:35.420, -0.051, 0.01, 0.986, 0.488, 0.488, 0, 0.571, 2.84, -94.471, -42.140, -3.528, -23.422, 23.43, 0.67856, 0.02136, 0.01315, -0.73407,
 15:04:54.704,d3:c7:8d:a5:a9:b5, 2015-01-01 00:05:35.420, -0.051, 0.013, 0.985, 0, 0.122, 0, 0.571, 2.845, -94.471, -42.140, -3.528, -23.422, 23.43, 0.67856, 0.02136, 0.01315, -0.73407,
 15:04:54.704,d3:c7:8d:a5:a9:b5, 2015-01-01 00:05:35.420, -0.05, 0.013, 0.985, 0, 0.122, 0, 0.571, 2.845, -94.471, -42.140, -3.528, -23.422, 23.43, 0.67856, 0.02136, 0.01315, -0.73407,
 15:04:54.704,d3:c7:8d:a5:a9:b5, 2015-01-01 00:05:35.420, -0.05, 0.009, 0.986, -0.183, -0.244, 0, 0.571, 2.84, -94.471, -42.140, -3.528, -23.422, 23.43, 0.67856, 0.02136, 0.01315, -0.73407,
 15:04:54.704,d3:c7:8d:a5:a9:b5, 2015-01-01 00:05:35.420, -0.047, 0.009, 0.986, -0.183, -0.244, 0, 0.566, 2.84, -94.471, -42.140, -3.528, -23.422, 23.43, 0.67856, 0.02136, 0.01315, -0.73407,
 15:04:54.763,d3:c7:8d:a5:a9:b5, 2015-01-01 00:05:35.420, -0.047, 0.01, 0.987, -0.183, -0.305, 0, 0.566, 2.834, -94.471, -42.042, -3.528, -23.422, 23.43, 0.67856, 0.02136, 0.01315, -0.73407,
 15:04:54.763,d3:c7:8d:a5:a9:b5, 2015-01-01 00:05:35.420, -0.044, 0.01, 0.987, -0.183, -0.305, 0, 0.566, 2.834, -94.471, -42.042, -3.528, -23.422, 23.43, 0.67856, 0.02136, 0.01315, -0.73407,
 15:04:54.763,d3:c7:8d:a5:a9:b5, 2015-01-01 00:05:35.420, -0.044, 0.008, 0.987, 0, -0.061, 0, 0.566, 2.834, -94.466, -42.042, -3.528, -23.422, 23.43, 0.67856, 0.02136, 0.01315, -0.73407,
 15:04:54.763,d3:c7:8d:a5:a9:b5, 2015-01-01 00:05:35.420, -0.047, 0.008, 0.987, 0, -0.061, 0, 0.566, 2.834, -94.466, -42.042, -3.528, -23.422, 23.43, 0.67856, 0.02136, 0.01315, -0.73407,
 15:04:54.793,d3:c7:8d:a5:a9:b5, 2015-01-01 00:05:35.420, -0.047, 0.009, 0.986, 0.305, 0.122, 0, 0.566, 2.834, -94.466, -42.042, -3.528, -23.422, 23.43, 0.67868, 0.02155, 0.01312, -0.73395,
 15:04:54.793,d3:c7:8d:a5:a9:b5, 2015-01-01 00:05:35.420, -0.049, 0.009, 0.986, 0.305, 0.122, 0, 0.571, 2.834, -94.466, -42.042, -3.528, -23.422, 23.43, 0.67868, 0.02155, 0.01312, -0.73395,
 15:04:54.793,d3:c7:8d:a5:a9:b5, 2015-01-01 00:05:35.420, -0.049, 0.009, 0.987, 0.427, 0.122, 0, 0.577, 2.834, -94.46, -42.042, -3.528, -23.422, 23.43, 0.67868, 0.02155, 0.01312, -0.73395,
 15:04:54.793,d3:c7:8d:a5:a9:b5, 2015-01-01 00:05:35.420, -0.049, 0.009, 0.987, 0.427, 0.122, 0, 0.577, 2.834, -94.46, -42.042, -3.528, -23.422, 23.43, 0.67868, 0.02155, 0.01312, -0.73395,
 15:04:54.824,d3:c7:8d:a5:a9:b5, 2015-01-01 00:05:35.420, -0.049, 0.011, 0.986, 0.488, 0.061, 0, 0.582, 2.834, -94.46, -42.042, -3.528, -23.422, 23.43, 0.67868, 0.02155, 0.01312, -0.73395,
 15:04:54.824,d3:c7:8d:a5:a9:b5, 2015-01-01 00:05:35.420, -0.049, 0.011, 0.986, 0.488, 0.061, 0, 0.588, 2.834, -94.46, -42.042, -3.528, -23.422, 23.43, 0.67868, 0.02155, 0.01312, -0.73395,
 15:04:54.824,d3:c7:8d:a5:a9:b5, 2015-01-01 00:05:35.420, -0.049, 0.012, 0.987, 0.366, 0.183, 0, 0.593, 2.84, -94.46, -42.042, -3.528, -23.422, 23.43, 0.67868, 0.02155, 0.01312, -0.73395,
 15:04:54.824,d3:c7:8d:a5:a9:b5, 2015-01-01 00:05:35.420, -0.052, 0.012, 0.987, 0.366, 0.183, 0, 0.593, 2.84, -94.46, -42.042, -3.528, -23.422, 23.43, 0.67868, 0.02155, 0.01312, -0.73395,
 15:04:54.884,d3:c7:8d:a5:a9:b5, 2015-01-01 00:05:35.745, -0.052, 0.011, 0.986, 0, -0.061, 0, 0.593, 2.84, -94.46, -42.042, -3.528, -23.422, 23.43, 0.67868, 0.02155, 0.01312, -0.73395,
 15:04:54.884,d3:c7:8d:a5:a9:b5, 2015-01-01 00:05:35.745, -0.051, 0.011, 0.986, 0, -0.061, 0, 0.593, 2.84, -94.455, -42.042, -3.528, -23.422, 23.43, 0.67868, 0.02155, 0.01312, -0.73395,
 15:04:54.884,d3:c7:8d:a5:a9:b5, 2015-01-01 00:05:35.745, -0.051, 0.01, 0.986, -0.183, -0.488, 0, 0.593, 2.834, -94.455, -42.042, -3.528, -23.422, 23.43, 0.67868, 0.02155, 0.01312, -0.73395,
 15:04:54.884,d3:c7:8d:a5:a9:b5, 2015-01-01 00:05:35.745, -0.045, 0.01, 0.986, -0.183, -0.488, 0, 0.593, 2.829, -94.455, -42.042, -3.528, -23.422, 23.43, 0.67868, 0.02155, 0.01312, -0.73395,
 15:04:54.913,d3:c7:8d:a5:a9:b5, 2015-01-01 00:05:35.745, -0.045, 0.009, 0.987, -0.122, -0.61, 0, 0.593, 2.823, -94.455, -42.042, -3.528, -23.422, 23.43, 0.67868, 0.02155, 0.01312, -0.73395,
 15:04:54.913,d3:c7:8d:a5:a9:b5, 2015-01-01 00:05:35.745, -0.04, 0.009, 0.987, -0.122, -0.61, 0, 0.588, 2.818, -94.455, -42.042, -3.528, -23.422, 23.43, 0.67868, 0.02155, 0.01312, -0.73395,
 15:04:54.913,d3:c7:8d:a5:a9:b5, 2015-01-01 00:05:35.745, -0.04, 0.01, 0.987, 0.305, -0.061, 0, 0.593, 2.818, -94.455, -42.042, -3.528, -23.422, 23.43, 0.67868, 0.02155, 0.01312, -0.73395,
 15:04:54.913,d3:c7:8d:a5:a9:b5, 2015-01-01 00:05:35.745, -0.047, 0.01, 0.987, 0.305, -0.061, 0, 0.593, 2.812, -94.455, -42.042, -3.528, -23.422, 23.43, 0.67868, 0.02155, 0.01312, -0.73395,
 15:04:54.943,d3:c7:8d:a5:a9:b5, 2015-01-01 00:05:35.745, -0.047, 0.01, 0.988, 0.671, 0.427, 0, 0.604, 2.818, -94.455, -42.042, -3.528, -23.422, 23.43, 0.67868, 0.02155, 0.01312, -0.73395,
 15:04:54.943,d3:c7:8d:a5:a9:b5, 2015-01-01 00:05:35.745, -0.051, 0.01, 0.988, 0.671, 0.427, 0, 0.61, 2.823, -94.455, -42.042, -3.528, -23.422, 23.43, 0.67868, 0.02155, 0.01312, -0.73395,
 15:04:54.943,d3:c7:8d:a5:a9:b5, 2015-01-01 00:05:35.745, -0.051, 0.012, 0.984, 0.488, 0.244, 0, 0.615, 2.823, -94.455, -42.042, -3.528, -23.422, 23.43, 0.67868, 0.02155, 0.01312, -0.73395,
 15:04:54.943,d3:c7:8d:a5:a9:b5, 2015-01-01 00:05:35.745, -0.054, 0.012, 0.984, 0.488, 0.244, 0, 0.621, 2.823, -94.455, -42.042, -3.528, -23.422, 23.43, 0.67868, 0.02155, 0.01312, -0.73395,
 15:04:55.002,d3:c7:8d:a5:a9:b5, 2015-01-01 00:05:35.745, -0.051, 0.01, 0.984, 0.244, -0.366, 0, 0.621, 2.823, -94.455, -42.042, -3.528, -23.422, 23.43, 0.67868, 0.02155, 0.01312, -0.73395,
 15:04:55.002,d3:c7:8d:a5:a9:b5, 2015-01-01 00:05:35.745, -0.051, 0.012, 0.988, 0.122, -0.916, 0, 0.621, 2.818, -94.455, -42.042, -3.528, -23.422, 23.43, 0.67868, 0.02155, 0.01312, -0.73395,
 15:04:55.002,d3:c7:8d:a5:a9:b5, 2015-01-01 00:05:35.745, -0.047, 0.012, 0.988, 0.122, -0.916, 0, 0.626, 2.807, -94.455, -42.042, -3.528, -23.422, 23.43, 0.67868, 0.02155, 0.01312, -0.73395,
 15:04:55.002,d3:c7:8d:a5:a9:b5, 2015-01-01 00:05:35.745, -0.047, 0.011, 0.986, 0, -0.977, 0, 0.626, 2.796, -94.455, -42.042, -3.528, -23.422, 23.43, 0.67868, 0.02155, 0.01312, -0.73395,
 15:04:55.035,d3:c7:8d:a5:a9:b5, 2015-01-01 00:05:35.745, -0.048, 0.011, 0.986, 0, -0.977, 0, 0.626, 2.791, -94.455, -42.042, -3.528, -23.422, 23.43, 0.67868, 0.02155, 0.01312, -0.73395,
 15:04:55.035,d3:c7:8d:a5:a9:b5, 2015-01-01 00:05:35.745, -0.048, 0.011, 0.986, 0, -1.038, 0, 0.626, 2.78, -94.455, -42.042, -3.528, -23.422, 23.43, 0.67868, 0.02155, 0.01312, -0.73395,
 15:04:55.035,d3:c7:8d:a5:a9:b5, 2015-01-01 00:05:35.745, -0.045, 0.011, 0.986, 0, -1.038, 0, 0.626, 2.769, -94.455, -42.042, -3.528, -23.422, 23.43, 0.67868, 0.02155, 0.01312, -0.73395,
 15:04:55.035,d3:c7:8d:a5:a9:b5, 2015-01-01 00:05:35.745, -0.045, 0.012, 0.985, -0.366, -1.038, 0, 0.621, 2.758, -94.455, -42.042, -3.528, -23.422, 23.43, 0.67868, 0.02155, 0.01312, -0.73395,
 15:04:55.062,d3:c7:8d:a5:a9:b5, 2015-01-01 00:05:35.745, -0.042, 0.012, 0.985, -0.366, -1.038, 0, 0.621, 2.747, -94.455, -42.238, -3.626, -23.324, 23.43, 0.67868, 0.02155, 0.01312, -0.73395,
 15:04:55.062,d3:c7:8d:a5:a9:b5, 2015-01-01 00:05:35.745, -0.042, 0.012, 0.99, -0.549, -0.671, -0.305, 0.615, 2.741, -94.455, -42.238, -3.626, -23.324, 23.43, 0.67868, 0.02155, 0.01312, -0.73395,
 15:04:55.062,d3:c7:8d:a5:a9:b5, 2015-01-01 00:05:35.745, -0.044, 0.012, 0.99, -0.549, -0.671, -0.305, 0.61, 2.736, -94.455, -42.238, -3.626, -23.324, 23.43, 0.67868, 0.02155, 0.01312, -0.73395,
 15:04:55.062,d3:c7:8d:a5:a9:b5, 2015-01-01 00:05:35.745, -0.044, 0.009, 0.988, -0.366, 0, -0.244, 0.604, 2.73, -94.46, -42.238, -3.626, -23.324, 23.43, 0.67868, 0.02155, 0.01312, -0.73395,
 15:04:55.123,d3:c7:8d:a5:a9:b5, 2015-01-01 00:05:35.745, -0.05, 0.009, 0.988, -0.366, 0, -0.244, 0.599, 2.73, -94.46, -42.238, -3.626, -23.324, 23.43, 0.67868, 0.02155, 0.01312, -0.73395,
 15:04:55.123,d3:c7:8d:a5:a9:b5, 2015-01-01 00:05:35.745, -0.05, 0.008, 0.986, -0.244, -0.305, -0.183, 0.599, 2.73, -94.46, -42.238, -3.626, -23.324, 23.43, 0.67868, 0.02155, 0.01312, -0.73395,
 15:04:55.123,d3:c7:8d:a5:a9:b5, 2015-01-01 00:05:35.745, -0.049, 0.008, 0.986, -0.244, -0.305, -0.183, 0.593, 2.725, -94.46, -42.238, -3.626, -23.324, 23.43, 0.67868, 0.02155, 0.01312, -0.73395,
 15:04:55.123,d3:c7:8d:a5:a9:b5, 2015-01-01 00:05:35.745, -0.049, 0.011, 0.986, -0.122, -0.854, -0.122, 0.593, 2.719, -94.466, -42.238, -3.626, -23.324, 23.43, 0.67868, 0.02155, 0.01312, -0.73395,
 15:04:55.153,d3:c7:8d:a5:a9:b5, 2015-01-01 00:05:35.745, -0.045, 0.011, 0.986, -0.122, -0.854, -0.122, 0.593, 2.714, -94.466, -42.238, -3.626, -23.324, 23.43, 0.67868, 0.02103, 0.01233, -0.73395,
 15:04:55.153,d3:c7:8d:a5:a9:b5, 2015-01-01 00:05:35.745, -0.045, 0.011, 0.985, -0.366, -1.038, -0.122, 0.588, 2.703, -94.466, -42.238, -3.626, -23.324, 23.43, 0.67868, 0.02103, 0.01233, -0.73395,
 15:04:55.153,d3:c7:8d:a5:a9:b5, 2015-01-01 00:05:35.745, -0.044, 0.011, 0.985, -0.366, -1.038, -0.122, 0.588, 2.692, -94.466, -42.238, -3.626, -23.324, 23.43, 0.67868, 0.02103, 0.01233, -0.73395,
 15:04:55.153,d3:c7:8d:a5:a9:b5, 2015-01-01 00:05:35.745, -0.044, 0.01, 0.989, -0.488, -1.038, -0.183, 0.582, 2.681, -94.466, -42.238, -3.626, -23.324, 23.43, 0.67868, 0.02103, 0.01233, -0.73395,
 15:04:55.182,d3:c7:8d:a5:a9:b5, 2015-01-01 00:05:35.745, -0.042, 0.01, 0.989, -0.488, -1.038, -0.183, 0.577, 2.67, -94.471, -42.238, -3.626, -23.324, 23.43, 0.67868, 0.02103, 0.01233, -0.73395,
 15:04:55.182,d3:c7:8d:a5:a9:b5, 2015-01-01 00:05:35.745, -0.042, 0.011, 0.987, -0.549, -0.671, -0.244, 0.571, 2.664, -94.471, -42.238, -3.626, -23.324, 23.43, 0.67868, 0.02103, 0.01233, -0.73395,
 15:04:55.182,d3:c7:8d:a5:a9:b5, 2015-01-01 00:05:35.745, -0.044, 0.011, 0.987, -0.549, -0.671, -0.244, 0.566, 2.659, -94.471, -42.238, -3.626, -23.324, 23.43, 0.67868, 0.02103, 0.01233, -0.73395,
 15:04:55.182,d3:c7:8d:a5:a9:b5, 2015-01-01 00:05:35.745, -0.044, 0.009, 0.987, -0.488, -0.427, -0.305, 0.56, 2.653, -94.477, -42.238, -3.626, -23.324, 23.43, 0.67868, 0.02103, 0.01233, -0.73395,
 15:04:55.243,d3:c7:8d:a5:a9:b5, 2015-01-01 00:05:36.105, -0.046, 0.009, 0.987, -0.488, -0.427, -0.305, 0.555, 2.648, -94.477, -42.238, -3.626, -23.324, 23.43, 0.67868, 0.02103, 0.01233, -0.73395,
 15:04:55.243,d3:c7:8d:a5:a9:b5, 2015-01-01 00:05:36.105, -0.046, 0.009, 0.987, -0.366, -0.61, -0.183, 0.555, 2.642, -94.482, -42.238, -3.626, -23.324, 23.43, 0.67868, 0.02103, 0.01233, -0.73395,
 15:04:55.243,d3:c7:8d:a5:a9:b5, 2015-01-01 00:05:36.105, -0.043, 0.009, 0.987, -0.366, -0.61, -0.183, 0.549, 2.637, -94.482, -42.238, -3.626, -23.324, 23.43, 0.67868, 0.02103, 0.01233, -0.73395,
 15:04:55.243,d3:c7:8d:a5:a9:b5, 2015-01-01 00:05:36.105, -0.043, 0.008, 0.99, -0.366, -0.793, -0.122, 0.544, 2.631, -94.482, -42.238, -3.626, -23.324, 23.43, 0.67868, 0.02103, 0.01233, -0.73395,
 15:04:55.273,d3:c7:8d:a5:a9:b5, 2015-01-01 00:05:36.105, -0.039, 0.008, 0.99, -0.366, -0.793, -0.122, 0.544, 2.62, -94.482, -42.238, -3.626, -23.324, 23.43, 0.67868, 0.02103, 0.01233, -0.73395,
 15:04:55.273,d3:c7:8d:a5:a9:b5, 2015-01-01 00:05:36.105, -0.039, 0.009, 0.986, -0.244, -0.305, -0.061, 0.538, 2.615, -94.482, -42.238, -3.626, -23.324, 23.43, 0.67868, 0.02103, 0.01233, -0.73395,
 15:04:55.273,d3:c7:8d:a5:a9:b5, 2015-01-01 00:05:36.105, -0.044, 0.009, 0.986, -0.244, -0.305, -0.061, 0.538, 2.615, -94.482, -42.238, -3.626, -23.324, 23.43, 0.67868, 0.02103, 0.01233, -0.73395,
 15:04:55.273,d3:c7:8d:a5:a9:b5, 2015-01-01 00:05:36.105, -0.044, 0.009, 0.989, -0.122, 0, -0.061, 0.533, 2.609, -94.482, -42.238, -3.626, -23.324, 23.43, 0.67868, 0.02103, 0.01233, -0.73395,
 15:04:55.303,d3:c7:8d:a5:a9:b5, 2015-01-01 00:05:36.105, -0.043, 0.009, 0.989, -0.122, 0, -0.061, 0.533, 2.609, -94.482, -42.238, -3.626, -23.324, 23.43, 0.67868, 0.02103, 0.01233, -0.73395,
 15:04:55.303,d3:c7:8d:a5:a9:b5, 2015-01-01 00:05:36.105, -0.043, 0.01, 0.989, 0, -0.061, 0, 0.533, 2.609, -94.482, -42.238, -3.626, -23.324, 23.43, 0.67868, 0.02103, 0.01233, -0.73395,
 15:04:55.303,d3:c7:8d:a5:a9:b5, 2015-01-01 00:05:36.105, -0.044, 0.01, 0.989, 0, -0.061, 0, 0.533, 2.609, -94.482, -42.238, -3.626, -23.324, 23.43, 0.67868, 0.02103, 0.01233, -0.73395,
 15:04:55.303,d3:c7:8d:a5:a9:b5, 2015-01-01 00:05:36.105, -0.044, 0.009, 0.988, -0.061, -0.122, -0.061, 0.533, 2.609, -94.482, -42.238, -3.626, -23.324, 23.43, 0.67868, 0.02103, 0.01233, -0.73395,
 15:04:55.392,d3:c7:8d:a5:a9:b5, 2015-01-01 00:05:36.105, -0.043, 0.009, 0.988, -0.061, -0.122, -0.061, 0.533, 2.604, -94.482, -42.238, -3.626, -23.324, 23.43, 0.67868, 0.02103, 0.01233, -0.73395,
 15:04:55.392,d3:c7:8d:a5:a9:b5, 2015-01-01 00:05:36.105, -0.043, 0.007, 0.988, 0.183, -0.122, 0, 0.533, 2.604, -94.482, -42.238, -3.626, -23.324, 23.43, 0.67868, 0.02103, 0.01233, -0.73395,
 15:04:55.392,d3:c7:8d:a5:a9:b5, 2015-01-01 00:05:36.105, -0.042, 0.007, 0.988, 0.183, -0.122, 0, 0.538, 2.604, -94.482, -42.238, -3.626, -23.324, 23.43, 0.67868, 0.02103, 0.01233, -0.73395,
 15:04:55.392,d3:c7:8d:a5:a9:b5, 2015-01-01 00:05:36.105, -0.042, 0.008, 0.986, 0.366, 0, 0, 0.538, 2.604, -94.482, -42.238, -3.626, -23.324, 23.43, 0.67868, 0.02103, 0.01233, -0.73395,
 15:04:55.395,d3:c7:8d:a5:a9:b5, 2015-01-01 00:05:36.105, -0.047, 0.008, 0.986, 0.366, 0, 0, 0.544, 2.604, -94.482, -42.238, -3.626, -23.324, 23.43, 0.67868, 0.02103, 0.01233, -0.73395,
 15:04:55.395,d3:c7:8d:a5:a9:b5, 2015-01-01 00:05:36.105, -0.047, 0.01, 0.988, 0.183, 0.061, 0, 0.544, 2.604, -94.482, -42.238, -3.626, -23.324, 23.43, 0.67868, 0.02103, 0.01233, -0.73395,
 15:04:55.395,d3:c7:8d:a5:a9:b5, 2015-01-01 00:05:36.105, -0.047, 0.01, 0.988, 0.183, 0.061, 0, 0.544, 2.604, -94.482, -42.238, -3.626, -23.324, 23.43, 0.67868, 0.02103, 0.01233, -0.73395,
 15:04:55.395,d3:c7:8d:a5:a9:b5, 2015-01-01 00:05:36.105, -0.047, 0.012, 0.985, -0.366, -0.244, -0.061, 0.544, 2.598, -94.482, -42.238, -3.626, -23.324, 23.43, 0.67868, 0.02103, 0.01233, -0.73395,
 15:04:55.423,d3:c7:8d:a5:a9:b5, 2015-01-01 00:05:36.105, -0.046, 0.012, 0.985, -0.366, -0.244, -0.061, 0.544, 2.598, -94.482, -42.238, -3.430, -23.324, 23.43, 0.67868, 0.02103, 0.01233, -0.73395,
 15:04:55.423,d3:c7:8d:a5:a9:b5, 2015-01-01 00:05:36.105, -0.046, 0.01, 0.988, -0.854, -0.793, -0.183, 0.538, 2.593, -94.482, -42.238, -3.430, -23.324, 23.43, 0.67868, 0.02103, 0.01233, -0.73395,
 15:04:55.423,d3:c7:8d:a5:a9:b5, 2015-01-01 00:05:36.105, -0.039, 0.01, 0.988, -0.854, -0.793, -0.183, 0.527, 2.587, -94.482, -42.238, -3.430, -23.324, 23.43, 0.67868, 0.02103, 0.01233, -0.73395,
 15:04:55.423,d3:c7:8d:a5:a9:b5, 2015-01-01 00:05:36.105, -0.039, 0.007, 0.988, -0.671, -0.427, -0.183, 0.522, 2.582, -94.488, -42.238, -3.430, -23.324, 23.43, 0.67868, 0.02103, 0.01233, -0.73395,
 15:04:55.483,d3:c7:8d:a5:a9:b5, 2015-01-01 00:05:36.105, -0.038, 0.007, 0.988, -0.671, -0.427, -0.183, 0.516, 2.576, -94.488, -42.238, -3.430, -23.324, 23.43, 0.67868, 0.02103, 0.01233, -0.73395,
 15:04:55.483,d3:c7:8d:a5:a9:b5, 2015-01-01 00:05:36.105, -0.038, 0.006, 0.989, -0.061, -0.061, -0.061, 0.516, 2.576, -94.488, -42.238, -3.430, -23.324, 23.43, 0.67868, 0.02103, 0.01233, -0.73395,
 15:04:55.483,d3:c7:8d:a5:a9:b5, 2015-01-01 00:05:36.105, -0.042, 0.006, 0.989, -0.061, -0.061, -0.061, 0.511, 2.576, -94.488, -42.238, -3.430, -23.324, 23.43, 0.67868, 0.02103, 0.01233, -0.73395,
 15:04:55.483,d3:c7:8d:a5:a9:b5, 2015-01-01 00:05:36.105, -0.042, 0.009, 0.989, 0.061, 0.305, -0.061, 0.516, 2.576, -94.488, -42.238, -3.430, -23.324, 23.43, 0.67868, 0.02103, 0.01233, -0.73395,
 15:04:55.513,d3:c7:8d:a5:a9:b5, 2015-01-01 00:05:36.105, -0.047, 0.009, 0.989, 0.061, 0.305, -0.061, 0.516, 2.582, -94.488, -42.238, -3.430, -23.324, 23.43, 0.67859, 0.01956, 0.01196, -0.7341,
 15:04:55.513,d3:c7:8d:a5:a9:b5, 2015-01-01 00:05:36.105, -0.047, 0.008, 0.987, 0.061, 0, -0.061, 0.516, 2.576, -94.488, -42.238, -3.430, -23.324, 23.43, 0.67859, 0.01956, 0.01196, -0.7341,
 15:04:55.513,d3:c7:8d:a5:a9:b5, 2015-01-01 00:05:36.105, -0.046, 0.008, 0.987, 0.061, 0, -0.061, 0.516, 2.576, -94.488, -42.238, -3.430, -23.324, 23.43, 0.67859, 0.01956, 0.01196, -0.7341,
 15:04:55.513,d3:c7:8d:a5:a9:b5, 2015-01-01 00:05:36.105, -0.046, 0.01, 0.987, -0.183, -0.488, -0.061, 0.511, 2.571, -94.488, -42.238, -3.430, -23.324, 23.43, 0.67859, 0.01956, 0.01196, -0.7341,
 15:04:55.543,d3:c7:8d:a5:a9:b5, 2015-01-01 00:05:36.105, -0.042, 0.01, 0.987, -0.183, -0.488, -0.061, 0.511, 2.571, -94.488, -42.238, -3.430, -23.324, 23.43, 0.67859, 0.01956, 0.01196, -0.7341,
 15:04:55.543,d3:c7:8d:a5:a9:b5, 2015-01-01 00:05:36.105, -0.042, 0.008, 0.988, -0.366, -0.732, -0.061, 0.505, 2.56, -94.488, -42.238, -3.430, -23.324, 23.43, 0.67859, 0.01956, 0.01196, -0.7341,
 15:04:55.543,d3:c7:8d:a5:a9:b5, 2015-01-01 00:05:36.105, -0.041, 0.008, 0.988, -0.366, -0.732, -0.061, 0.505, 2.554, -94.488, -42.238, -3.430, -23.324, 23.43, 0.67859, 0.01956, 0.01196, -0.7341,
 15:04:55.543,d3:c7:8d:a5:a9:b5, 2015-01-01 00:05:36.105, -0.041, 0.007, 0.989, -0.244, -0.488, -0.061, 0.5, 2.549, -94.488, -42.238, -3.430, -23.324, 23.43, 0.67859, 0.01956, 0.01196, -0.7341,
 15:04:55.603,d3:c7:8d:a5:a9:b5, 2015-01-01 00:05:36.460, -0.042, 0.007, 0.989, -0.244, -0.488, -0.061, 0.5, 2.543, -94.488, -42.238, -3.430, -23.324, 23.43, 0.67859, 0.01956, 0.01196, -0.7341,
 15:04:55.603,d3:c7:8d:a5:a9:b5, 2015-01-01 00:05:36.460, -0.042, 0.008, 0.988, -0.122, -0.183, -0.061, 0.5, 2.543, -94.488, -42.238, -3.430, -23.324, 23.43, 0.67859, 0.01956, 0.01196, -0.7341,
 15:04:55.603,d3:c7:8d:a5:a9:b5, 2015-01-01 00:05:36.460, -0.044, 0.008, 0.988, -0.122, -0.183, -0.061, 0.494, 2.538, -94.488, -42.238, -3.430, -23.324, 23.43, 0.67859, 0.01956, 0.01196, -0.7341,
 15:04:55.603,d3:c7:8d:a5:a9:b5, 2015-01-01 00:05:36.460, -0.044, 0.008, 0.987, -0.122, -0.427, 0, 0.494, 2.532, -94.488, -42.238, -3.430, -23.324, 23.43, 0.67859, 0.01956, 0.01196, -0.7341,
 15:04:55.632,d3:c7:8d:a5:a9:b5, 2015-01-01 00:05:36.460, -0.042, 0.008, 0.987, -0.122, -0.427, 0, 0.494, 2.532, -94.488, -42.238, -3.430, -23.324, 23.43, 0.67859, 0.01956, 0.01196, -0.7341,
 15:04:55.632,d3:c7:8d:a5:a9:b5, 2015-01-01 00:05:36.460, -0.042, 0.008, 0.987, 0, -0.366, 0, 0.494, 2.527, -94.488, -42.238, -3.430, -23.324, 23.43, 0.67859, 0.01956, 0.01196, -0.7341,
 15:04:55.632,d3:c7:8d:a5:a9:b5, 2015-01-01 00:05:36.460, -0.044, 0.008, 0.987, 0, -0.366, 0, 0.494, 2.521, -94.488, -42.238, -3.430, -23.324, 23.43, 0.67859, 0.01956, 0.01196, -0.7341,
 15:04:55.632,d3:c7:8d:a5:a9:b5, 2015-01-01 00:05:36.460, -0.044, 0.009, 0.989, 0.061, -0.305, -0.061, 0.494, 2.521, -94.488, -42.238, -3.430, -23.324, 23.43, 0.67859, 0.01956, 0.01196, -0.7341,
 15:04:55.662,d3:c7:8d:a5:a9:b5, 2015-01-01 00:05:36.460, -0.047, 0.009, 0.989, 0.061, -0.305, -0.061, 0.494, 2.516, -94.488, -42.238, -3.430, -23.324, 23.43, 0.67859, 0.01956, 0.01196, -0.7341,
 15:04:55.662,d3:c7:8d:a5:a9:b5, 2015-01-01 00:05:36.460, -0.047, 0.011, 0.985, -0.305, -0.427, -0.122, 0.494, 2.51, -94.488, -42.238, -3.430, -23.324, 23.43, 0.67859, 0.01956, 0.01196, -0.7341,
 15:04:55.662,d3:c7:8d:a5:a9:b5, 2015-01-01 00:05:36.460, -0.043, 0.011, 0.985, -0.305, -0.427, -0.122, 0.489, 2.51, -94.493, -42.238, -3.430, -23.324, 23.43, 0.67859, 0.01956, 0.01196, -0.7341,
 15:04:55.662,d3:c7:8d:a5:a9:b5, 2015-01-01 00:05:36.460, -0.043, 0.008, 0.987, -0.732, -0.732, -0.183, 0.483, 2.499, -94.493, -42.238, -3.430, -23.324, 23.43, 0.67859, 0.01956, 0.01196, -0.7341,
 15:04:55.722,d3:c7:8d:a5:a9:b5, 2015-01-01 00:05:36.460, -0.037, 0.008, 0.987, -0.732, -0.732, -0.183, 0.472, 2.494, -94.493, -42.238, -3.430, -23.324, 23.43, 0.67859, 0.01956, 0.01196, -0.7341,
 15:04:55.722,d3:c7:8d:a5:a9:b5, 2015-01-01 00:05:36.460, -0.037, 0.008, 0.989, -0.793, -0.305, -0.183, 0.467, 2.488, -94.493, -42.238, -3.430, -23.324, 23.43, 0.67859, 0.01956, 0.01196, -0.7341,
 15:04:55.722,d3:c7:8d:a5:a9:b5, 2015-01-01 00:05:36.460, -0.038, 0.008, 0.989, -0.793, -0.305, -0.183, 0.461, 2.488, -94.499, -42.238, -3.430, -23.324, 23.43, 0.67859, 0.01956, 0.01196, -0.7341,
 15:04:55.722,d3:c7:8d:a5:a9:b5, 2015-01-01 00:05:36.460, -0.038, 0.006, 0.99, -0.366, 0.061, 0, 0.456, 2.488, -94.499, -42.238, -3.430, -23.324, 23.43, 0.67859, 0.01956, 0.01196, -0.7341,
 15:04:55.754,d3:c7:8d:a5:a9:b5, 2015-01-01 00:05:36.460, -0.041, 0.006, 0.99, -0.366, 0.061, 0, 0.45, 2.488, -94.499, -42.238, -3.430, -23.324, 23.43, 0.67859, 0.01956, 0.01196, -0.7341,
 15:04:55.754,d3:c7:8d:a5:a9:b5, 2015-01-01 00:05:36.460, -0.041, 0.005, 0.989, 0.061, 0, 0, 0.45, 2.488, -94.499, -42.238, -3.430, -23.324, 23.43, 0.67859, 0.01956, 0.01196, -0.7341,
 15:04:55.754,d3:c7:8d:a5:a9:b5, 2015-01-01 00:05:36.460, -0.043, 0.005, 0.989, 0.061, 0, 0, 0.456, 2.488, -94.493, -42.238, -3.430, -23.324, 23.43, 0.67859, 0.01956, 0.01196, -0.7341,
 15:04:55.754,d3:c7:8d:a5:a9:b5, 2015-01-01 00:05:36.460, -0.043, 0.008, 0.987, 0, -0.061, 0, 0.456, 2.488, -94.493, -42.238, -3.430, -23.324, 23.43, 0.67859, 0.01956, 0.01196, -0.7341,
 15:04:55.784,d3:c7:8d:a5:a9:b5, 2015-01-01 00:05:36.460, -0.039, 0.008, 0.987, 0, -0.061, 0, 0.456, 2.483, -94.493, -42.336, -3.528, -23.324, 23.43, 0.67859, 0.01956, 0.01196, -0.7341,
 15:04:55.784,d3:c7:8d:a5:a9:b5, 2015-01-01 00:05:36.460, -0.039, 0.008, 0.988, 0.122, -0.061, 0, 0.456, 2.483, -94.493, -42.336, -3.528, -23.324, 23.43, 0.67859, 0.01956, 0.01196, -0.7341,
 15:04:55.784,d3:c7:8d:a5:a9:b5, 2015-01-01 00:05:36.460, -0.043, 0.008, 0.988, 0.122, -0.061, 0, 0.456, 2.483, -94.493, -42.336, -3.528, -23.324, 23.43, 0.67859, 0.01956, 0.01196, -0.7341,
 15:04:55.784,d3:c7:8d:a5:a9:b5, 2015-01-01 00:05:36.460, -0.043, 0.008, 0.989, 0, 0.061, 0, 0.456, 2.483, -94.493, -42.336, -3.528, -23.324, 23.43, 0.67859, 0.01956, 0.01196, -0.7341,
 15:04:55.843,d3:c7:8d:a5:a9:b5, 2015-01-01 00:05:36.460, -0.043, 0.008, 0.989, 0, 0.061, 0, 0.456, 2.483, -94.493, -42.336, -3.528, -23.324, 23.43, 0.67859, 0.01956, 0.01196, -0.7341,
 15:04:55.843,d3:c7:8d:a5:a9:b5, 2015-01-01 00:05:36.460, -0.043, 0.007, 0.987, 0, 0, 0, 0.456, 2.483, -94.493, -42.336, -3.528, -23.324, 23.43, 0.67859, 0.01956, 0.01196, -0.7341,
 15:04:55.843,d3:c7:8d:a5:a9:b5, 2015-01-01 00:05:36.460, -0.043, 0.007, 0.987, 0, 0, 0, 0.456, 2.483, -94.493, -42.336, -3.528, -23.324, 23.43, 0.67859, 0.01956, 0.01196, -0.7341,
 15:04:55.843,d3:c7:8d:a5:a9:b5, 2015-01-01 00:05:36.460, -0.043, 0.006, 0.987, -0.122, -0.244, 0, 0.456, 2.483, -94.493, -42.336, -3.528, -23.324, 23.43, 0.67859, 0.01956, 0.01196, -0.7341,
 15:04:55.873,d3:c7:8d:a5:a9:b5, 2015-01-01 00:05:36.460, -0.041, 0.006, 0.987, -0.122, -0.244, 0, 0.456, 2.477, -94.493, -42.336, -3.528, -23.324, 23.43, 0.67856, 0.01862, 0.01178, -0.73413,
 15:04:55.873,d3:c7:8d:a5:a9:b5, 2015-01-01 00:05:36.460, -0.041, 0.006, 0.989, 0, -0.305, 0, 0.456, 2.472, -94.493, -42.336, -3.528, -23.324, 23.43, 0.67856, 0.01862, 0.01178, -0.73413,
 15:04:55.873,d3:c7:8d:a5:a9:b5, 2015-01-01 00:05:36.460, -0.038, 0.006, 0.989, 0, -0.305, 0, 0.45, 2.472, -94.493, -42.336, -3.528, -23.324, 23.43, 0.67856, 0.01862, 0.01178, -0.73413,
 15:04:55.873,d3:c7:8d:a5:a9:b5, 2015-01-01 00:05:36.460, -0.039, 0.008, 0.989, 0.061, -0.122, 0, 0.456, 2.472, -94.493, -42.336, -3.528, -23.324, 23.43, 0.67856, 0.01862, 0.01178, -0.73413,
 15:04:55.903,d3:c7:8d:a5:a9:b5, 2015-01-01 00:05:36.460, -0.039, 0.009, 0.989, 0.122, 0.122, 0, 0.456, 2.472, -94.493, -42.336, -3.528, -23.324, 23.43, 0.67856, 0.01862, 0.01178, -0.73413,
 15:04:55.903,d3:c7:8d:a5:a9:b5, 2015-01-01 00:05:36.460, -0.042, 0.009, 0.989, 0.122, 0.122, 0, 0.456, 2.472, -94.493, -42.336, -3.528, -23.324, 23.43, 0.67856, 0.01862, 0.01178, -0.73413,
 15:04:55.903,d3:c7:8d:a5:a9:b5, 2015-01-01 00:05:36.460, -0.042, 0.007, 0.989, 0, 0.183, 0, 0.456, 2.472, -94.493, -42.336, -3.528, -23.324, 23.43, 0.67856, 0.01862, 0.01178, -0.73413,
 15:04:55.903,d3:c7:8d:a5:a9:b5, 2015-01-01 00:05:36.460, -0.04, 0.007, 0.989, 0, 0.183, 0, 0.456, 2.472, -94.488, -42.336, -3.528, -23.324, 23.43, 0.67856, 0.01862, 0.01178, -0.73413,
 15:04:55.962,d3:c7:8d:a5:a9:b5, 2015-01-01 00:05:36.820, -0.04, 0.007, 0.987, -0.061, 0.122, 0, 0.456, 2.472, -94.488, -42.336, -3.528, -23.324, 23.43, 0.67856, 0.01862, 0.01178, -0.73413,
 15:04:55.962,d3:c7:8d:a5:a9:b5, 2015-01-01 00:05:36.820, -0.041, 0.007, 0.987, -0.061, 0.122, 0, 0.456, 2.472, -94.488, -42.336, -3.528, -23.324, 23.43, 0.67856, 0.01862, 0.01178, -0.73413,
 15:04:55.962,d3:c7:8d:a5:a9:b5, 2015-01-01 00:05:36.820, -0.041, 0.006, 0.989, 0.122, 0.244, 0, 0.456, 2.477, -94.488, -42.336, -3.528, -23.324, 23.43, 0.67856, 0.01862, 0.01178, -0.73413,
 15:04:55.962,d3:c7:8d:a5:a9:b5, 2015-01-01 00:05:36.820, -0.041, 0.006, 0.989, 0.122, 0.244, 0, 0.456, 2.477, -94.488, -42.336, -3.528, -23.324, 23.43, 0.67856, 0.01862, 0.01178, -0.73413,
 15:04:55.992,d3:c7:8d:a5:a9:b5, 2015-01-01 00:05:36.820, -0.041, 0.008, 0.988, 0.244, 0.488, 0, 0.456, 2.483, -94.488, -42.336, -3.528, -23.324, 23.43, 0.67856, 0.01862, 0.01178, -0.73413,
 15:04:55.992,d3:c7:8d:a5:a9:b5, 2015-01-01 00:05:36.820, -0.044, 0.008, 0.988, 0.244, 0.488, 0, 0.461, 2.483, -94.488, -42.336, -3.528, -23.324, 23.43, 0.67856, 0.01862, 0.01178, -0.73413,
 15:04:55.992,d3:c7:8d:a5:a9:b5, 2015-01-01 00:05:36.820, -0.044, 0.008, 0.988, 0.122, 0.427, 0, 0.461, 2.488, -94.488, -42.336, -3.528, -23.324, 23.43, 0.67856, 0.01862, 0.01178, -0.73413,
 15:04:55.992,d3:c7:8d:a5:a9:b5, 2015-01-01 00:05:36.820, -0.043, 0.008, 0.988, 0.122, 0.427, 0, 0.461, 2.494, -94.488, -42.336, -3.528, -23.324, 23.43, 0.67856, 0.01862, 0.01178, -0.73413,
 15:04:56.023,d3:c7:8d:a5:a9:b5, 2015-01-01 00:05:36.820, -0.043, 0.008, 0.986, 0, 0.244, 0, 0.461, 2.494, -94.488, -42.336, -3.528, -23.324, 23.43, 0.67856, 0.01862, 0.01178, -0.73413,
 15:04:56.023,d3:c7:8d:a5:a9:b5, 2015-01-01 00:05:36.820, -0.042, 0.008, 0.986, 0, 0.244, 0, 0.461, 2.499, -94.488, -42.336, -3.528, -23.324, 23.43, 0.67856, 0.01862, 0.01178, -0.73413,
 15:04:56.023,d3:c7:8d:a5:a9:b5, 2015-01-01 00:05:36.820, -0.042, 0.008, 0.99, -0.061, 0.183, 0, 0.461, 2.499, -94.488, -42.336, -3.528, -23.324, 23.43, 0.67856, 0.01862, 0.01178, -0.73413,
 15:04:56.023,d3:c7:8d:a5:a9:b5, 2015-01-01 00:05:36.820, -0.042, 0.008, 0.99, -0.061, 0.183, 0, 0.461, 2.499, -94.488, -42.336, -3.528, -23.324, 23.43, 0.67856, 0.01862, 0.01178, -0.73413,
 15:04:56.112,d3:c7:8d:a5:a9:b5, 2015-01-01 00:05:36.820, -0.042, 0.008, 0.988, 0, 0.305, 0, 0.461, 2.505, -94.488, -42.336, -3.528, -23.324, 23.43, 0.67856, 0.01862, 0.01178, -0.73413,
 15:04:56.112,d3:c7:8d:a5:a9:b5, 2015-01-01 00:05:36.820, -0.043, 0.008, 0.988, 0, 0.305, 0, 0.461, 2.505, -94.488, -42.336, -3.528, -23.324, 23.43, 0.67856, 0.01862, 0.01178, -0.73413,
 15:04:56.112,d3:c7:8d:a5:a9:b5, 2015-01-01 00:05:36.820, -0.043, 0.006, 0.989, 0.061, 0.122, 0, 0.461, 2.505, -94.488, -42.336, -3.528, -23.324, 23.43, 0.67856, 0.01862, 0.01178, -0.73413,
 15:04:56.112,d3:c7:8d:a5:a9:b5, 2015-01-01 00:05:36.820, -0.042, 0.006, 0.989, 0.061, 0.122, 0, 0.461, 2.505, -94.488, -42.336, -3.528, -23.324, 23.43, 0.67856, 0.01862, 0.01178, -0.73413,
 15:04:56.114,d3:c7:8d:a5:a9:b5, 2015-01-01 00:05:36.820, -0.042, 0.007, 0.988, 0.122, 0, 0, 0.461, 2.51, -94.482, -42.336, -3.528, -23.324, 23.43, 0.67856, 0.01862, 0.01178, -0.73413,
 15:04:56.114,d3:c7:8d:a5:a9:b5, 2015-01-01 00:05:36.820, -0.04, 0.007, 0.988, 0.122, 0, 0, 0.467, 2.505, -94.482, -42.336, -3.528, -23.324, 23.43, 0.67856, 0.01862, 0.01178, -0.73413,
 15:04:56.114,d3:c7:8d:a5:a9:b5, 2015-01-01 00:05:36.820, -0.04, 0.008, 0.988, 0.061, 0.061, 0, 0.467, 2.505, -94.482, -42.336, -3.528, -23.324, 23.43, 0.67856, 0.01862, 0.01178, -0.73413,
 15:04:56.114,d3:c7:8d:a5:a9:b5, 2015-01-01 00:05:36.820, -0.042, 0.008, 0.988, 0.061, 0.061, 0, 0.467, 2.505, -94.482, -42.336, -3.528, -23.324, 23.43, 0.67856, 0.01862, 0.01178, -0.73413,
 15:04:56.173,d3:c7:8d:a5:a9:b5, 2015-01-01 00:05:36.820, -0.042, 0.009, 0.99, 0, 0.244, 0, 0.467, 2.51, -94.482, -42.336, -3.528, -23.324, 23.43, 0.67856, 0.01862, 0.01178, -0.73413,
 15:04:56.173,d3:c7:8d:a5:a9:b5, 2015-01-01 00:05:36.820, -0.043, 0.009, 0.99, 0, 0.244, 0, 0.467, 2.51, -94.482, -42.336, -3.528, -23.324, 23.43, 0.67856, 0.01862, 0.01178, -0.73413,
 15:04:56.173,d3:c7:8d:a5:a9:b5, 2015-01-01 00:05:36.820, -0.043, 0.007, 0.985, 0, 0.305, 0, 0.467, 2.51, -94.482, -42.336, -3.528, -23.324, 23.43, 0.67856, 0.01862, 0.01178, -0.73413,
 15:04:56.173,d3:c7:8d:a5:a9:b5, 2015-01-01 00:05:36.820, -0.046, 0.007, 0.985, 0, 0.305, 0, 0.467, 2.516, -94.482, -42.336, -3.528, -23.324, 23.43, 0.67856, 0.01862, 0.01178, -0.73413,
 15:04:56.203,d3:c7:8d:a5:a9:b5, 2015-01-01 00:05:36.820, -0.046, 0.007, 0.99, 0.183, -0.061, 0, 0.467, 2.516, -94.482, -42.336, -3.528, -23.324, 23.43, 0.67862, 0.01892, 0.0119, -0.73407,
 15:04:56.203,d3:c7:8d:a5:a9:b5, 2015-01-01 00:05:36.820, -0.042, 0.007, 0.99, 0.183, -0.061, 0, 0.467, 2.516, -94.482, -42.336, -3.528, -23.324, 23.43, 0.67862, 0.01892, 0.0119, -0.73407,
 15:04:56.203,d3:c7:8d:a5:a9:b5, 2015-01-01 00:05:36.820, -0.042, 0.009, 0.986, 0.305, -0.183, 0, 0.472, 2.516, -94.482, -42.336, -3.528, -23.324, 23.43, 0.67862, 0.01892, 0.0119, -0.73407,
 15:04:56.203,d3:c7:8d:a5:a9:b5, 2015-01-01 00:05:36.820, -0.04, 0.009, 0.986, 0.305, -0.183, 0, 0.472, 2.51, -94.482, -42.336, -3.528, -23.324, 23.43, 0.67862, 0.01892, 0.0119, -0.73407,
 15:04:56.233,d3:c7:8d:a5:a9:b5, 2015-01-01 00:05:36.820, -0.04, 0.008, 0.988, 0.183, -0.122, 0, 0.478, 2.51, -94.482, -42.336, -3.528, -23.324, 23.43, 0.67862, 0.01892, 0.0119, -0.73407,
 15:04:56.233,d3:c7:8d:a5:a9:b5, 2015-01-01 00:05:36.820, -0.042, 0.008, 0.988, 0.183, -0.122, 0, 0.478, 2.51, -94.482, -42.336, -3.528, -23.324, 23.43, 0.67862, 0.01892, 0.0119, -0.73407,
 15:04:56.233,d3:c7:8d:a5:a9:b5, 2015-01-01 00:05:36.820, -0.042, 0.009, 0.99, -0.122, 0.183, 0, 0.478, 2.51, -94.482, -42.336, -3.528, -23.324, 23.43, 0.67862, 0.01892, 0.0119, -0.73407,
 15:04:56.233,d3:c7:8d:a5:a9:b5, 2015-01-01 00:05:36.820, -0.044, 0.009, 0.99, -0.122, 0.183, 0, 0.478, 2.51, -94.482, -42.336, -3.528, -23.324, 23.43, 0.67862, 0.01892, 0.0119, -0.73407,
 15:04:56.323,d3:c7:8d:a5:a9:b5, 2015-01-01 00:05:37.145, -0.044, 0.008, 0.985, -0.244, 0.122, 0, 0.478, 2.51, -94.482, -42.336, -3.528, -23.324, 23.43, 0.67862, 0.01892, 0.0119, -0.73407,
 15:04:56.323,d3:c7:8d:a5:a9:b5, 2015-01-01 00:05:37.145, -0.045, 0.008, 0.985, -0.244, 0.122, 0, 0.472, 2.51, -94.482, -42.336, -3.528, -23.324, 23.43, 0.67862, 0.01892, 0.0119, -0.73407,
 15:04:56.323,d3:c7:8d:a5:a9:b5, 2015-01-01 00:05:37.145, -0.045, 0.009, 0.989, -0.488, -0.305, 0, 0.467, 2.51, -94.482, -42.336, -3.528, -23.324, 23.43, 0.67862, 0.01892, 0.0119, -0.73407,
 15:04:56.323,d3:c7:8d:a5:a9:b5, 2015-01-01 00:05:37.145, -0.041, 0.009, 0.989, -0.488, -0.305, 0, 0.467, 2.505, -94.482, -42.336, -3.528, -23.324, 23.43, 0.67862, 0.01892, 0.0119, -0.73407,
 15:04:56.323,d3:c7:8d:a5:a9:b5, 2015-01-01 00:05:37.145, -0.041, 0.008, 0.99, -0.305, -0.427, 0, 0.461, 2.505, -94.482, -42.336, -3.528, -23.324, 23.43, 0.67862, 0.01892, 0.0119, -0.73407,
 15:04:56.323,d3:c7:8d:a5:a9:b5, 2015-01-01 00:05:37.145, -0.039, 0.008, 0.99, -0.305, -0.427, 0, 0.456, 2.499, -94.477, -42.336, -3.528, -23.324, 23.43, 0.67862, 0.01892, 0.0119, -0.73407,
 15:04:56.323,d3:c7:8d:a5:a9:b5, 2015-01-01 00:05:37.145, -0.039, 0.006, 0.989, 0, 0, 0, 0.456, 2.499, -94.477, -42.336, -3.528, -23.324, 23.43, 0.67862, 0.01892, 0.0119, -0.73407,
 15:04:56.323,d3:c7:8d:a5:a9:b5, 2015-01-01 00:05:37.145, -0.043, 0.006, 0.989, 0, 0, 0, 0.456, 2.494, -94.477, -42.336, -3.528, -23.324, 23.43, 0.67862, 0.01892, 0.0119, -0.73407,
 15:04:56.353,d3:c7:8d:a5:a9:b5, 2015-01-01 00:05:37.145, -0.043, 0.007, 0.987, 0.244, 0.061, 0, 0.456, 2.494, -94.477, -42.336, -3.528, -23.324, 23.43, 0.67862, 0.01892, 0.0119, -0.73407,
 15:04:56.353,d3:c7:8d:a5:a9:b5, 2015-01-01 00:05:37.145, -0.045, 0.007, 0.987, 0.244, 0.061, 0, 0.461, 2.499, -94.477, -42.336, -3.528, -23.324, 23.43, 0.67862, 0.01892, 0.0119, -0.73407,
 15:04:56.353,d3:c7:8d:a5:a9:b5, 2015-01-01 00:05:37.145, -0.045, 0.01, 0.987, 0.183, -0.122, 0, 0.461, 2.494, -94.477, -42.336, -3.528, -23.324, 23.43, 0.67862, 0.01892, 0.0119, -0.73407,
 15:04:56.353,d3:c7:8d:a5:a9:b5, 2015-01-01 00:05:37.145, -0.043, 0.01, 0.987, 0.183, -0.122, 0, 0.461, 2.494, -94.477, -42.336, -3.528, -23.324, 23.43, 0.67862, 0.01892, 0.0119, -0.73407,
 15:04:56.413,d3:c7:8d:a5:a9:b5, 2015-01-01 00:05:37.145, -0.043, 0.009, 0.989, -0.061, -0.305, 0, 0.461, 2.488, -94.477, -42.336, -3.528, -23.324, 23.43, 0.67862, 0.01892, 0.0119, -0.73407,
 15:04:56.413,d3:c7:8d:a5:a9:b5, 2015-01-01 00:05:37.145, -0.04, 0.009, 0.989, -0.061, -0.305, 0, 0.461, 2.488, -94.477, -42.336, -3.528, -23.324, 23.43, 0.67862, 0.01892, 0.0119, -0.73407,
 15:04:56.413,d3:c7:8d:a5:a9:b5, 2015-01-01 00:05:37.145, -0.04, 0.007, 0.987, -0.366, -0.305, 0, 0.461, 2.483, -94.477, -42.336, -3.528, -23.324, 23.43, 0.67862, 0.01892, 0.0119, -0.73407,
 15:04:56.413,d3:c7:8d:a5:a9:b5, 2015-01-01 00:05:37.145, -0.039, 0.007, 0.987, -0.366, -0.305, 0, 0.456, 2.483, -94.477, -42.336, -3.528, -23.324, 23.43, 0.67862, 0.01892, 0.0119, -0.73407,
 15:04:56.443,d3:c7:8d:a5:a9:b5, 2015-01-01 00:05:37.145, -0.039, 0.006, 0.99, -0.061, -0.122, 0, 0.456, 2.477, -94.477, -42.336, -3.528, -23.324, 23.43, 0.67862, 0.01892, 0.0119, -0.73407,
 15:04:56.443,d3:c7:8d:a5:a9:b5, 2015-01-01 00:05:37.145, -0.039, 0.006, 0.99, -0.061, -0.122, 0, 0.456, 2.477, -94.477, -42.336, -3.528, -23.324, 23.43, 0.67862, 0.01892, 0.0119, -0.73407,
 15:04:56.443,d3:c7:8d:a5:a9:b5, 2015-01-01 00:05:37.145, -0.039, 0.007, 0.989, 0.183, 0.183, 0, 0.456, 2.477, -94.477, -42.336, -3.528, -23.324, 23.43, 0.67862, 0.01892, 0.0119, -0.73407,
 15:04:56.443,d3:c7:8d:a5:a9:b5, 2015-01-01 00:05:37.145, -0.042, 0.007, 0.989, 0.183, 0.183, 0, 0.456, 2.483, -94.477, -42.336, -3.528, -23.324, 23.43, 0.67862, 0.01892, 0.0119, -0.73407,
 15:04:56.473,d3:c7:8d:a5:a9:b5, 2015-01-01 00:05:37.145, -0.042, 0.009, 0.988, 0.183, 0.183, 0, 0.461, 2.483, -94.477, -42.238, -3.528, -23.324, 23.43, 0.67862, 0.01892, 0.0119, -0.73407,
 15:04:56.473,d3:c7:8d:a5:a9:b5, 2015-01-01 00:05:37.145, -0.042, 0.009, 0.988, 0.183, 0.183, 0, 0.461, 2.483, -94.477, -42.238, -3.528, -23.324, 23.43, 0.67862, 0.01892, 0.0119, -0.73407,
 15:04:56.473,d3:c7:8d:a5:a9:b5, 2015-01-01 00:05:37.145, -0.042, 0.008, 0.987, 0.183, 0.183, 0, 0.461, 2.483, -94.477, -42.238, -3.528, -23.324, 23.43, 0.67862, 0.01892, 0.0119, -0.73407,
 15:04:56.473,d3:c7:8d:a5:a9:b5, 2015-01-01 00:05:37.145, -0.044, 0.008, 0.987, 0.183, 0.183, 0, 0.467, 2.488, -94.477, -42.238, -3.528, -23.324, 23.43, 0.67862, 0.01892, 0.0119, -0.73407,
 15:04:56.533,d3:c7:8d:a5:a9:b5, 2015-01-01 00:05:37.145, -0.044, 0.007, 0.988, 0.061, 0.183, 0, 0.467, 2.488, -94.477, -42.238, -3.528, -23.324, 23.43, 0.67862, 0.01892, 0.0119, -0.73407,
 15:04:56.533,d3:c7:8d:a5:a9:b5, 2015-01-01 00:05:37.145, -0.044, 0.007, 0.988, 0.061, 0.183, 0, 0.467, 2.488, -94.477, -42.238, -3.528, -23.324, 23.43, 0.67862, 0.01892, 0.0119, -0.73407,
 15:04:56.533,d3:c7:8d:a5:a9:b5, 2015-01-01 00:05:37.145, -0.044, 0.011, 0.986, -0.183, 0, 0, 0.467, 2.488, -94.477, -42.238, -3.528, -23.324, 23.43, 0.67862, 0.01892, 0.0119, -0.73407,
 15:04:56.533,d3:c7:8d:a5:a9:b5, 2015-01-01 00:05:37.145, -0.042, 0.011, 0.986, -0.183, 0, 0, 0.461, 2.488, -94.477, -42.238, -3.528, -23.324, 23.43, 0.67862, 0.01892, 0.0119, -0.73407,
 15:04:56.563,d3:c7:8d:a5:a9:b5, 2015-01-01 00:05:37.145, -0.042, 0.009, 0.99, -0.488, -0.244, 0, 0.461, 2.488, -94.477, -42.238, -3.528, -23.324, 23.43, 0.67868, 0.01874, 0.01175, -0.73404,
 15:04:56.563,d3:c7:8d:a5:a9:b5, 2015-01-01 00:05:37.145, -0.041, 0.009, 0.99, -0.488, -0.244, 0, 0.456, 2.483, -94.477, -42.238, -3.528, -23.324, 23.43, 0.67868, 0.01874, 0.01175, -0.73404,
 15:04:56.563,d3:c7:8d:a5:a9:b5, 2015-01-01 00:05:37.145, -0.041, 0.006, 0.989, -0.488, 0, 0, 0.45, 2.483, -94.471, -42.238, -3.528, -23.324, 23.43, 0.67868, 0.01874, 0.01175, -0.73404,
 15:04:56.563,d3:c7:8d:a5:a9:b5, 2015-01-01 00:05:37.145, -0.039, 0.006, 0.989, -0.488, 0, 0, 0.445, 2.483, -94.471, -42.238, -3.528, -23.324, 23.43, 0.67868, 0.01874, 0.01175, -0.73404,
 15:04:56.593,d3:c7:8d:a5:a9:b5, 2015-01-01 00:05:37.145, -0.039, 0.005, 0.987, -0.183, 0.122, 0, 0.445, 2.483, -94.471, -42.238, -3.528, -23.324, 23.43, 0.67868, 0.01874, 0.01175, -0.73404,
 15:04:56.593,d3:c7:8d:a5:a9:b5, 2015-01-01 00:05:37.145, -0.04, 0.005, 0.987, -0.183, 0.122, 0, 0.439, 2.483, -94.471, -42.238, -3.528, -23.324, 23.43, 0.67868, 0.01874, 0.01175, -0.73404,
 15:04:56.593,d3:c7:8d:a5:a9:b5, 2015-01-01 00:05:37.145, -0.04, 0.006, 0.989, 0.305, 0.244, 0, 0.445, 2.488, -94.471, -42.238, -3.528, -23.324, 23.43, 0.67868, 0.01874, 0.01175, -0.73404,
 15:04:56.593,d3:c7:8d:a5:a9:b5, 2015-01-01 00:05:37.145, -0.042, 0.006, 0.989, 0.305, 0.244, 0, 0.445, 2.488, -94.471, -42.238, -3.528, -23.324, 23.43, 0.67868, 0.01874, 0.01175, -0.73404,
 15:04:56.653,d3:c7:8d:a5:a9:b5, 2015-01-01 00:05:37.505, -0.042, 0.009, 0.989, 0.244, 0.305, 0, 0.45, 2.494, -94.471, -42.238, -3.528, -23.324, 23.43, 0.67868, 0.01874, 0.01175, -0.73404,
 15:04:56.653,d3:c7:8d:a5:a9:b5, 2015-01-01 00:05:37.505, -0.042, 0.009, 0.989, 0.244, 0.305, 0, 0.45, 2.494, -94.471, -42.238, -3.528, -23.324, 23.43, 0.67868, 0.01874, 0.01175, -0.73404,
 15:04:56.653,d3:c7:8d:a5:a9:b5, 2015-01-01 00:05:37.505, -0.042, 0.009, 0.987, 0.061, 0.305, 0, 0.45, 2.494, -94.471, -42.238, -3.528, -23.324, 23.43, 0.67868, 0.01874, 0.01175, -0.73404,
 15:04:56.653,d3:c7:8d:a5:a9:b5, 2015-01-01 00:05:37.505, -0.044, 0.009, 0.987, 0.061, 0.305, 0, 0.456, 2.499, -94.471, -42.238, -3.528, -23.324, 23.43, 0.67868, 0.01874, 0.01175, -0.73404,
 15:04:56.683,d3:c7:8d:a5:a9:b5, 2015-01-01 00:05:37.505, -0.044, 0.007, 0.987, 0, 0.183, 0, 0.456, 2.499, -94.471, -42.238, -3.528, -23.324, 23.43, 0.67868, 0.01874, 0.01175, -0.73404,
 15:04:56.683,d3:c7:8d:a5:a9:b5, 2015-01-01 00:05:37.505, -0.045, 0.007, 0.987, 0, 0.183, 0, 0.456, 2.499, -94.471, -42.238, -3.528, -23.324, 23.43, 0.67868, 0.01874, 0.01175, -0.73404,
 15:04:56.683,d3:c7:8d:a5:a9:b5, 2015-01-01 00:05:37.505, -0.045, 0.007, 0.989, 0.061, -0.122, 0, 0.456, 2.499, -94.471, -42.238, -3.528, -23.324, 23.43, 0.67868, 0.01874, 0.01175, -0.73404,
 15:04:56.683,d3:c7:8d:a5:a9:b5, 2015-01-01 00:05:37.505, -0.042, 0.007, 0.989, 0.061, -0.122, 0, 0.456, 2.499, -94.471, -42.238, -3.528, -23.324, 23.43, 0.67868, 0.01874, 0.01175, -0.73404,
 15:04:56.712,d3:c7:8d:a5:a9:b5, 2015-01-01 00:05:37.505, -0.042, 0.009, 0.988, -0.061, -0.244, 0, 0.456, 2.494, -94.471, -42.238, -3.528, -23.324, 23.43, 0.67868, 0.01874, 0.01175, -0.73404,
 15:04:56.712,d3:c7:8d:a5:a9:b5, 2015-01-01 00:05:37.505, -0.042, 0.009, 0.988, -0.061, -0.244, 0, 0.456, 2.494, -94.471, -42.238, -3.528, -23.324, 23.43, 0.67868, 0.01874, 0.01175, -0.73404,
 15:04:56.712,d3:c7:8d:a5:a9:b5, 2015-01-01 00:05:37.505, -0.042, 0.007, 0.987, -0.061, -0.061, 0, 0.45, 2.494, -94.471, -42.238, -3.528, -23.324, 23.43, 0.67868, 0.01874, 0.01175, -0.73404,
 15:04:56.712,d3:c7:8d:a5:a9:b5, 2015-01-01 00:05:37.505, -0.044, 0.007, 0.987, -0.061, -0.061, 0, 0.45, 2.494, -94.471, -42.238, -3.528, -23.324, 23.43, 0.67868, 0.01874, 0.01175, -0.73404,
 15:04:56.774,d3:c7:8d:a5:a9:b5, 2015-01-01 00:05:37.505, -0.044, 0.007, 0.989, 0, -0.122, 0, 0.45, 2.488, -94.471, -42.238, -3.528, -23.324, 23.43, 0.67868, 0.01874, 0.01175, -0.73404,
 15:04:56.774,d3:c7:8d:a5:a9:b5, 2015-01-01 00:05:37.505, -0.042, 0.007, 0.989, 0, -0.122, 0, 0.45, 2.488, -94.471, -42.238, -3.528, -23.324, 23.43, 0.67868, 0.01874, 0.01175, -0.73404,
 15:04:56.774,d3:c7:8d:a5:a9:b5, 2015-01-01 00:05:37.505, -0.042, 0.009, 0.988, 0.061, -0.305, 0, 0.45, 2.488, -94.471, -42.238, -3.528, -23.324, 23.43, 0.67868, 0.01874, 0.01175, -0.73404,
 15:04:56.774,d3:c7:8d:a5:a9:b5, 2015-01-01 00:05:37.505, -0.04, 0.009, 0.988, 0.061, -0.305, 0, 0.456, 2.483, -94.471, -42.238, -3.528, -23.324, 23.43, 0.67868, 0.01874, 0.01175, -0.73404,
 15:04:56.833,d3:c7:8d:a5:a9:b5, 2015-01-01 00:05:37.505, -0.041, 0.009, 0.99, 0.061, -0.122, 0, 0.456, 2.483, -94.471, -42.238, -3.528, -23.324, 23.43, 0.67868, 0.01874, 0.01175, -0.73404,
 15:04:56.833,d3:c7:8d:a5:a9:b5, 2015-01-01 00:05:37.505, -0.041, 0.008, 0.988, -0.061, 0.183, 0, 0.456, 2.483, -94.471, -42.238, -3.528, -23.324, 23.43, 0.67868, 0.01874, 0.01175, -0.73404,
 15:04:56.833,d3:c7:8d:a5:a9:b5, 2015-01-01 00:05:37.505, -0.042, 0.008, 0.988, -0.061, 0.183, 0, 0.456, 2.483, -94.471, -42.238, -3.528, -23.324, 23.43, 0.67868, 0.01874, 0.01175, -0.73404,
 15:04:56.833,d3:c7:8d:a5:a9:b5, 2015-01-01 00:05:37.505, -0.042, 0.006, 0.989, 0, 0, 0, 0.456, 2.483, -94.471, -42.238, -3.528, -23.324, 23.43, 0.67868, 0.01874, 0.01175, -0.73404,
 15:04:56.833,d3:c7:8d:a5:a9:b5, 2015-01-01 00:05:37.505, -0.039, 0.006, 0.989, 0, 0, 0, 0.456, 2.483, -94.471, -42.238, -3.528, -23.324, 23.43, 0.67868, 0.01874, 0.01175, -0.73404,
 15:04:56.833,d3:c7:8d:a5:a9:b5, 2015-01-01 00:05:37.505, -0.039, 0.007, 0.989, 0.183, 0.244, 0, 0.456, 2.483, -94.466, -42.238, -3.528, -23.324, 23.43, 0.67868, 0.01874, 0.01175, -0.73404,
 15:04:56.833,d3:c7:8d:a5:a9:b5, 2015-01-01 00:05:37.505, -0.041, 0.007, 0.989, 0.183, 0.244, 0, 0.456, 2.488, -94.466, -42.238, -3.528, -23.324, 23.43, 0.67868, 0.01874, 0.01175, -0.73404,
 15:04:56.833,d3:c7:8d:a5:a9:b5, 2015-01-01 00:05:37.505, -0.041, 0.008, 0.987, 0.366, 0.366, 0, 0.461, 2.488, -94.466, -42.238, -3.528, -23.324, 23.43, 0.67868, 0.01874, 0.01175, -0.73404,
 15:04:56.893,d3:c7:8d:a5:a9:b5, 2015-01-01 00:05:37.505, -0.043, 0.008, 0.987, 0.366, 0.366, 0, 0.461, 2.494, -94.466, -42.336, -3.430, -23.324, 23.43, 0.67868, 0.01874, 0.01175, -0.73404,
 15:04:56.893,d3:c7:8d:a5:a9:b5, 2015-01-01 00:05:37.505, -0.043, 0.01, 0.989, 0.244, 0.366, 0, 0.467, 2.494, -94.466, -42.336, -3.430, -23.324, 23.43, 0.67868, 0.01874, 0.01175, -0.73404,
 15:04:56.893,d3:c7:8d:a5:a9:b5, 2015-01-01 00:05:37.505, -0.044, 0.01, 0.989, 0.244, 0.366, 0, 0.467, 2.499, -94.466, -42.336, -3.430, -23.324, 23.43, 0.67868, 0.01874, 0.01175, -0.73404,
 15:04:56.893,d3:c7:8d:a5:a9:b5, 2015-01-01 00:05:37.505, -0.044, 0.007, 0.986, 0.061, 0.366, 0, 0.467, 2.499, -94.466, -42.336, -3.430, -23.324, 23.43, 0.67868, 0.01874, 0.01175, -0.73404,
 15:04:56.923,d3:c7:8d:a5:a9:b5, 2015-01-01 00:05:37.505, -0.045, 0.007, 0.986, 0.061, 0.366, 0, 0.472, 2.505, -94.466, -42.336, -3.430, -23.324, 23.43, 0.67871, 0.01886, 0.01181, -0.73398,
 15:04:56.923,d3:c7:8d:a5:a9:b5, 2015-01-01 00:05:37.505, -0.045, 0.01, 0.988, 0.061, 0.061, 0, 0.472, 2.505, -94.466, -42.336, -3.430, -23.324, 23.43, 0.67871, 0.01886, 0.01181, -0.73398,
 15:04:56.923,d3:c7:8d:a5:a9:b5, 2015-01-01 00:05:37.505, -0.045, 0.01, 0.988, 0.061, 0.061, 0, 0.472, 2.505, -94.466, -42.336, -3.430, -23.324, 23.43, 0.67871, 0.01886, 0.01181, -0.73398,
 15:04:56.923,d3:c7:8d:a5:a9:b5, 2015-01-01 00:05:37.505, -0.045, 0.007, 0.989, -0.061, 0, 0, 0.472, 2.51, -94.466, -42.336, -3.430, -23.324, 23.43, 0.67871, 0.01886, 0.01181, -0.73398,
 15:04:56.953,d3:c7:8d:a5:a9:b5, 2015-01-01 00:05:37.505, -0.042, 0.007, 0.989, -0.061, 0, 0, 0.472, 2.51, -94.466, -42.336, -3.430, -23.324, 23.43, 0.67871, 0.01886, 0.01181, -0.73398,
 15:04:56.953,d3:c7:8d:a5:a9:b5, 2015-01-01 00:05:37.505, -0.042, 0.008, 0.987, 0, -0.183, 0, 0.472, 2.505, -94.466, -42.336, -3.430, -23.324, 23.43, 0.67871, 0.01886, 0.01181, -0.73398,
 15:04:56.953,d3:c7:8d:a5:a9:b5, 2015-01-01 00:05:37.505, -0.041, 0.008, 0.987, 0, -0.183, 0, 0.472, 2.505, -94.466, -42.336, -3.430, -23.324, 23.43, 0.67871, 0.01886, 0.01181, -0.73398,
 15:04:56.953,d3:c7:8d:a5:a9:b5, 2015-01-01 00:05:37.505, -0.041, 0.007, 0.989, 0, -0.244, 0, 0.472, 2.505, -94.466, -42.336, -3.430, -23.324, 23.43, 0.67871, 0.01886, 0.01181, -0.73398,
 15:04:57.043,d3:c7:8d:a5:a9:b5, 2015-01-01 00:05:37.860, -0.039, 0.007, 0.989, 0, -0.244, 0, 0.472, 2.499, -94.466, -42.336, -3.430, -23.324, 23.43, 0.67871, 0.01886, 0.01181, -0.73398,
 15:04:57.043,d3:c7:8d:a5:a9:b5, 2015-01-01 00:05:37.860, -0.039, 0.008, 0.988, 0, 0, 0, 0.472, 2.499, -94.466, -42.336, -3.430, -23.324, 23.43, 0.67871, 0.01886, 0.01181, -0.73398,
 15:04:57.043,d3:c7:8d:a5:a9:b5, 2015-01-01 00:05:37.860, -0.043, 0.008, 0.988, 0, 0, 0, 0.472, 2.499, -94.466, -42.336, -3.430, -23.324, 23.43, 0.67871, 0.01886, 0.01181, -0.73398,
 15:04:57.043,d3:c7:8d:a5:a9:b5, 2015-01-01 00:05:37.860, -0.043, 0.008, 0.989, 0, 0, 0, 0.472, 2.499, -94.466, -42.336, -3.430, -23.324, 23.43, 0.67871, 0.01886, 0.01181, -0.73398,
 15:04:57.043,d3:c7:8d:a5:a9:b5, 2015-01-01 00:05:37.860, -0.041, 0.008, 0.989, 0, 0, 0, 0.472, 2.499, -94.466, -42.336, -3.430, -23.324, 23.43, 0.67871, 0.01886, 0.01181, -0.73398,
 15:04:57.043,d3:c7:8d:a5:a9:b5, 2015-01-01 00:05:37.860, -0.041, 0.009, 0.988, -0.061, -0.061, 0, 0.472, 2.499, -94.466, -42.336, -3.430, -23.324, 23.43, 0.67871, 0.01886, 0.01181, -0.73398,
 15:04:57.043,d3:c7:8d:a5:a9:b5, 2015-01-01 00:05:37.860, -0.041, 0.009, 0.988, -0.061, -0.061, 0, 0.467, 2.494, -94.466, -42.336, -3.430, -23.324, 23.43, 0.67871, 0.01886, 0.01181, -0.73398,
 15:04:57.043,d3:c7:8d:a5:a9:b5, 2015-01-01 00:05:37.860, -0.041, 0.007, 0.99, 0.183, 0, 0, 0.472, 2.494, -94.466, -42.336, -3.430, -23.324, 23.43, 0.67871, 0.01886, 0.01181, -0.73398,
 15:04:57.072,d3:c7:8d:a5:a9:b5, 2015-01-01 00:05:37.860, -0.042, 0.007, 0.99, 0.183, 0, 0, 0.472, 2.494, -94.466, -42.336, -3.430, -23.324, 23.43, 0.67871, 0.01886, 0.01181, -0.73398,
 15:04:57.072,d3:c7:8d:a5:a9:b5, 2015-01-01 00:05:37.860, -0.042, 0.008, 0.989, 0.549, 0.366, 0, 0.478, 2.494, -94.466, -42.336, -3.430, -23.324, 23.43, 0.67871, 0.01886, 0.01181, -0.73398,
 15:04:57.072,d3:c7:8d:a5:a9:b5, 2015-01-01 00:05:37.860, -0.045, 0.008, 0.989, 0.549, 0.366, 0, 0.483, 2.499, -94.466, -42.336, -3.430, -23.324, 23.43, 0.67871, 0.01886, 0.01181, -0.73398,
 15:04:57.072,d3:c7:8d:a5:a9:b5, 2015-01-01 00:05:37.860, -0.045, 0.008, 0.985, 0.366, 0.366, 0, 0.483, 2.505, -94.466, -42.336, -3.430, -23.324, 23.43, 0.67871, 0.01886, 0.01181, -0.73398,
 15:04:57.133,d3:c7:8d:a5:a9:b5, 2015-01-01 00:05:37.860, -0.048, 0.008, 0.985, 0.366, 0.366, 0, 0.489, 2.505, -94.466, -42.336, -3.430, -23.324, 23.43, 0.67871, 0.01886, 0.01181, -0.73398,
 15:04:57.133,d3:c7:8d:a5:a9:b5, 2015-01-01 00:05:37.860, -0.048, 0.01, 0.987, 0.122, 0, 0, 0.489, 2.51, -94.466, -42.336, -3.430, -23.324, 23.43, 0.67871, 0.01886, 0.01181, -0.73398,
 15:04:57.133,d3:c7:8d:a5:a9:b5, 2015-01-01 00:05:37.860, -0.045, 0.01, 0.987, 0.122, 0, 0, 0.494, 2.51, -94.466, -42.336, -3.430, -23.324, 23.43, 0.67871, 0.01886, 0.01181, -0.73398,
 15:04:57.133,d3:c7:8d:a5:a9:b5, 2015-01-01 00:05:37.860, -0.045, 0.011, 0.988, -0.366, -0.549, 0, 0.489, 2.505, -94.466, -42.336, -3.430, -23.324, 23.43, 0.67871, 0.01886, 0.01181, -0.73398,
 15:04:57.164,d3:c7:8d:a5:a9:b5, 2015-01-01 00:05:37.860, -0.038, 0.011, 0.988, -0.366, -0.549, 0, 0.489, 2.499, -94.466, -42.336, -3.430, -23.324, 23.43, 0.67871, 0.01886, 0.01181, -0.73398,
 15:04:57.164,d3:c7:8d:a5:a9:b5, 2015-01-01 00:05:37.860, -0.038, 0.01, 0.988, -0.732, -0.671, 0, 0.483, 2.494, -94.466, -42.336, -3.430, -23.324, 23.43, 0.67871, 0.01886, 0.01181, -0.73398,
 15:04:57.164,d3:c7:8d:a5:a9:b5, 2015-01-01 00:05:37.860, -0.035, 0.01, 0.988, -0.732, -0.671, 0, 0.478, 2.488, -94.466, -42.336, -3.430, -23.324, 23.43, 0.67871, 0.01886, 0.01181, -0.73398,
 15:04:57.164,d3:c7:8d:a5:a9:b5, 2015-01-01 00:05:37.860, -0.035, 0.005, 0.992, -0.427, 0, 0, 0.472, 2.483, -94.46, -42.336, -3.430, -23.324, 23.43, 0.67871, 0.01886, 0.01181, -0.73398,
 15:04:57.193,d3:c7:8d:a5:a9:b5, 2015-01-01 00:05:37.860, -0.037, 0.005, 0.992, -0.427, 0, 0, 0.467, 2.483, -94.46, -42.238, -3.626, -23.422, 23.43, 0.67871, 0.01886, 0.01181, -0.73398,
 15:04:57.193,d3:c7:8d:a5:a9:b5, 2015-01-01 00:05:37.860, -0.037, 0.005, 0.988, 0.122, 0.61, 0, 0.467, 2.488, -94.46, -42.238, -3.626, -23.422, 23.43, 0.67871, 0.01886, 0.01181, -0.73398,
 15:04:57.193,d3:c7:8d:a5:a9:b5, 2015-01-01 00:05:37.860, -0.044, 0.005, 0.988, 0.122, 0.61, 0, 0.467, 2.494, -94.46, -42.238, -3.626, -23.422, 23.43, 0.67871, 0.01886, 0.01181, -0.73398,
 15:04:57.193,d3:c7:8d:a5:a9:b5, 2015-01-01 00:05:37.860, -0.044, 0.006, 0.987, 0.488, 0.854, 0, 0.467, 2.499, -94.46, -42.238, -3.626, -23.422, 23.43, 0.67871, 0.01886, 0.01181, -0.73398,
 15:04:57.253,d3:c7:8d:a5:a9:b5, 2015-01-01 00:05:37.860, -0.05, 0.006, 0.987, 0.488, 0.854, 0, 0.472, 2.505, -94.46, -42.238, -3.626, -23.422, 23.43, 0.67871, 0.01886, 0.01181, -0.73398,
 15:04:57.253,d3:c7:8d:a5:a9:b5, 2015-01-01 00:05:37.860, -0.05, 0.01, 0.987, 0.244, 0.244, 0, 0.478, 2.51, -94.46, -42.238, -3.626, -23.422, 23.43, 0.67871, 0.01886, 0.01181, -0.73398,
 15:04:57.253,d3:c7:8d:a5:a9:b5, 2015-01-01 00:05:37.860, -0.048, 0.01, 0.987, 0.244, 0.244, 0, 0.478, 2.51, -94.46, -42.238, -3.626, -23.422, 23.43, 0.67871, 0.01886, 0.01181, -0.73398,
 15:04:57.253,d3:c7:8d:a5:a9:b5, 2015-01-01 00:05:37.860, -0.048, 0.011, 0.987, -0.122, -0.427, 0, 0.478, 2.51, -94.46, -42.238, -3.626, -23.422, 23.43, 0.67871, 0.01886, 0.01181, -0.73398,
 15:04:57.284,d3:c7:8d:a5:a9:b5, 2015-01-01 00:05:37.860, -0.038, 0.011, 0.987, -0.122, -0.427, 0, 0.478, 2.505, -94.46, -42.238, -3.626, -23.422, 23.43, 0.67874, 0.01892, 0.01181, -0.73395,
 15:04:57.284,d3:c7:8d:a5:a9:b5, 2015-01-01 00:05:37.860, -0.038, 0.009, 0.989, -0.427, -0.427, 0, 0.472, 2.499, -94.46, -42.238, -3.626, -23.422, 23.43, 0.67874, 0.01892, 0.01181, -0.73395,
 15:04:57.284,d3:c7:8d:a5:a9:b5, 2015-01-01 00:05:37.860, -0.04, 0.009, 0.989, -0.427, -0.427, 0, 0.467, 2.494, -94.46, -42.238, -3.626, -23.422, 23.43, 0.67874, 0.01892, 0.01181, -0.73395,
 15:04:57.284,d3:c7:8d:a5:a9:b5, 2015-01-01 00:05:37.860, -0.04, 0.005, 0.988, -0.122, 0.183, 0, 0.467, 2.499, -94.46, -42.238, -3.626, -23.422, 23.43, 0.67874, 0.01892, 0.01181, -0.73395,
 15:04:57.314,d3:c7:8d:a5:a9:b5, 2015-01-01 00:05:37.860, -0.043, 0.005, 0.988, -0.122, 0.183, 0, 0.467, 2.499, -94.46, -42.238, -3.626, -23.422, 23.43, 0.67874, 0.01892, 0.01181, -0.73395,
 15:04:57.314,d3:c7:8d:a5:a9:b5, 2015-01-01 00:05:37.860, -0.043, 0.009, 0.986, 0.061, 0.244, 0, 0.467, 2.499, -94.46, -42.238, -3.626, -23.422, 23.43, 0.67874, 0.01892, 0.01181, -0.73395,
 15:04:57.314,d3:c7:8d:a5:a9:b5, 2015-01-01 00:05:37.860, -0.044, 0.009, 0.986, 0.061, 0.244, 0, 0.467, 2.505, -94.46, -42.238, -3.626, -23.422, 23.43, 0.67874, 0.01892, 0.01181, -0.73395,
 15:04:57.314,d3:c7:8d:a5:a9:b5, 2015-01-01 00:05:37.860, -0.044, 0.008, 0.991, 0.122, 0, 0, 0.467, 2.499, -94.46, -42.238, -3.626, -23.422, 23.43, 0.67874, 0.01892, 0.01181, -0.73395,
 15:04:57.374,d3:c7:8d:a5:a9:b5, 2015-01-01 00:05:38.220, -0.042, 0.008, 0.991, 0.122, 0, 0, 0.472, 2.499, -94.46, -42.238, -3.626, -23.422, 23.43, 0.67874, 0.01892, 0.01181, -0.73395,
 15:04:57.374,d3:c7:8d:a5:a9:b5, 2015-01-01 00:05:38.220, -0.042, 0.008, 0.986, 0.061, 0, 0, 0.472, 2.499, -94.46, -42.238, -3.626, -23.422, 23.43, 0.67874, 0.01892, 0.01181, -0.73395,
 15:04:57.374,d3:c7:8d:a5:a9:b5, 2015-01-01 00:05:38.220, -0.043, 0.008, 0.986, 0.061, 0, 0, 0.472, 2.499, -94.46, -42.238, -3.626, -23.422, 23.43, 0.67874, 0.01892, 0.01181, -0.73395,
 15:04:57.374,d3:c7:8d:a5:a9:b5, 2015-01-01 00:05:38.220, -0.043, 0.008, 0.99, 0.061, -0.061, 0, 0.472, 2.499, -94.46, -42.238, -3.626, -23.422, 23.43, 0.67874, 0.01892, 0.01181, -0.73395,
 15:04:57.403,d3:c7:8d:a5:a9:b5, 2015-01-01 00:05:38.220, -0.042, 0.008, 0.99, 0.061, -0.061, 0, 0.472, 2.499, -94.46, -42.238, -3.626, -23.422, 23.43, 0.67874, 0.01892, 0.01181, -0.73395,
 15:04:57.403,d3:c7:8d:a5:a9:b5, 2015-01-01 00:05:38.220, -0.042, 0.009, 0.985, -0.244, 0, 0, 0.472, 2.499, -94.46, -42.238, -3.626, -23.422, 23.43, 0.67874, 0.01892, 0.01181, -0.73395,
 15:04:57.403,d3:c7:8d:a5:a9:b5, 2015-01-01 00:05:38.220, -0.043, 0.009, 0.985, -0.244, 0, 0, 0.467, 2.499, -94.46, -42.238, -3.626, -23.422, 23.43, 0.67874, 0.01892, 0.01181, -0.73395,
 15:04:57.403,d3:c7:8d:a5:a9:b5, 2015-01-01 00:05:38.220, -0.043, 0.008, 0.99, -0.366, -0.305, 0, 0.467, 2.494, -94.46, -42.238, -3.626, -23.422, 23.43, 0.67874, 0.01892, 0.01181, -0.73395,
 15:04:57.432,d3:c7:8d:a5:a9:b5, 2015-01-01 00:05:38.220, -0.039, 0.008, 0.99, -0.366, -0.305, 0, 0.461, 2.494, -94.46, -42.238, -3.626, -23.422, 23.43, 0.67874, 0.01892, 0.01181, -0.73395,
 15:04:57.432,d3:c7:8d:a5:a9:b5, 2015-01-01 00:05:38.220, -0.039, 0.007, 0.991, -0.305, 0, 0, 0.456, 2.494, -94.46, -42.238, -3.626, -23.422, 23.43, 0.67874, 0.01892, 0.01181, -0.73395,
 15:04:57.432,d3:c7:8d:a5:a9:b5, 2015-01-01 00:05:38.220, -0.038, 0.007, 0.991, -0.305, 0, 0, 0.456, 2.494, -94.46, -42.238, -3.626, -23.422, 23.43, 0.67874, 0.01892, 0.01181, -0.73395,
 15:04:57.432,d3:c7:8d:a5:a9:b5, 2015-01-01 00:05:38.220, -0.038, 0.007, 0.987, 0, 0.366, 0, 0.456, 2.494, -94.46, -42.238, -3.626, -23.422, 23.43, 0.67874, 0.01892, 0.01181, -0.73395,
 15:04:57.492,d3:c7:8d:a5:a9:b5, 2015-01-01 00:05:38.220, -0.045, 0.007, 0.987, 0, 0.366, 0, 0.456, 2.499, -94.46, -42.238, -3.626, -23.422, 23.43, 0.67874, 0.01892, 0.01181, -0.73395,
 15:04:57.492,d3:c7:8d:a5:a9:b5, 2015-01-01 00:05:38.220, -0.045, 0.006, 0.991, 0.427, 0.671, 0, 0.461, 2.505, -94.46, -42.238, -3.626, -23.422, 23.43, 0.67874, 0.01892, 0.01181, -0.73395,
 15:04:57.492,d3:c7:8d:a5:a9:b5, 2015-01-01 00:05:38.220, -0.045, 0.006, 0.991, 0.427, 0.671, 0, 0.467, 2.51, -94.46, -42.238, -3.626, -23.422, 23.43, 0.67874, 0.01892, 0.01181, -0.73395,
 15:04:57.492,d3:c7:8d:a5:a9:b5, 2015-01-01 00:05:38.220, -0.045, 0.008, 0.985, 0.305, 0.488, 0, 0.467, 2.516, -94.46, -42.238, -3.626, -23.422, 23.43, 0.67874, 0.01892, 0.01181, -0.73395,
 15:04:57.524,d3:c7:8d:a5:a9:b5, 2015-01-01 00:05:38.220, -0.044, 0.008, 0.985, 0.305, 0.488, 0, 0.472, 2.521, -94.46, -42.238, -3.626, -23.422, 23.43, 0.67874, 0.01892, 0.01181, -0.73395,
 15:04:57.524,d3:c7:8d:a5:a9:b5, 2015-01-01 00:05:38.220, -0.044, 0.009, 0.988, 0.183, 0.183, 0, 0.472, 2.521, -94.46, -42.238, -3.626, -23.422, 23.43, 0.67874, 0.01892, 0.01181, -0.73395,
 15:04:57.524,d3:c7:8d:a5:a9:b5, 2015-01-01 00:05:38.220, -0.042, 0.009, 0.988, 0.183, 0.183, 0, 0.472, 2.521, -94.46, -42.238, -3.626, -23.422, 23.43, 0.67874, 0.01892, 0.01181, -0.73395,
 15:04:57.524,d3:c7:8d:a5:a9:b5, 2015-01-01 00:05:38.220, -0.042, 0.01, 0.988, 0, 0.366, 0, 0.472, 2.527, -94.46, -42.238, -3.626, -23.422, 23.43, 0.67874, 0.01892, 0.01181, -0.73395,
 15:04:57.583,d3:c7:8d:a5:a9:b5, 2015-01-01 00:05:38.220, -0.043, 0.01, 0.988, 0, 0.366, 0, 0.472, 2.527, -94.46, -42.336, -3.430, -23.422, 23.43, 0.67874, 0.01892, 0.01181, -0.73395,
 15:04:57.583,d3:c7:8d:a5:a9:b5, 2015-01-01 00:05:38.220, -0.043, 0.009, 0.988, -0.061, 0.305, 0, 0.472, 2.532, -94.455, -42.336, -3.430, -23.422, 23.43, 0.67874, 0.01892, 0.01181, -0.73395,
 15:04:57.583,d3:c7:8d:a5:a9:b5, 2015-01-01 00:05:38.220, -0.044, 0.009, 0.988, -0.061, 0.305, 0, 0.472, 2.532, -94.455, -42.336, -3.430, -23.422, 23.43, 0.67874, 0.01892, 0.01181, -0.73395,
 15:04:57.583,d3:c7:8d:a5:a9:b5, 2015-01-01 00:05:38.220, -0.044, 0.009, 0.988, -0.305, 0.122, 0, 0.472, 2.538, -94.455, -42.336, -3.430, -23.422, 23.43, 0.67874, 0.01892, 0.01181, -0.73395,
 15:04:57.613,d3:c7:8d:a5:a9:b5, 2015-01-01 00:05:38.220, -0.042, 0.009, 0.988, -0.305, 0.122, 0, 0.467, 2.538, -94.455, -42.336, -3.430, -23.422, 23.43, 0.67874, 0.01892, 0.01181, -0.73395,
 15:04:57.613,d3:c7:8d:a5:a9:b5, 2015-01-01 00:05:38.220, -0.042, 0.005, 0.986, -0.244, 0.122, 0, 0.467, 2.538, -94.455, -42.336, -3.430, -23.422, 23.43, 0.67874, 0.01892, 0.01181, -0.73395,
 15:04:57.613,d3:c7:8d:a5:a9:b5, 2015-01-01 00:05:38.220, -0.044, 0.005, 0.986, -0.244, 0.122, 0, 0.461, 2.538, -94.455, -42.336, -3.430, -23.422, 23.43, 0.67874, 0.01892, 0.01181, -0.73395,
 15:04:57.613,d3:c7:8d:a5:a9:b5, 2015-01-01 00:05:38.220, -0.044, 0.007, 0.989, -0.061, 0, 0, 0.461, 2.538, -94.455, -42.336, -3.430, -23.422, 23.43, 0.67874, 0.01892, 0.01181, -0.73395,
 15:04:57.643,d3:c7:8d:a5:a9:b5, 2015-01-01 00:05:38.220, -0.043, 0.007, 0.989, -0.061, 0, 0, 0.461, 2.538, -94.455, -42.336, -3.430, -23.422, 23.43, 0.67877, 0.01904, 0.01205, -0.73392,
 15:04:57.643,d3:c7:8d:a5:a9:b5, 2015-01-01 00:05:38.220, -0.043, 0.009, 0.989, 0, -0.061, 0, 0.461, 2.538, -94.455, -42.336, -3.430, -23.422, 23.43, 0.67877, 0.01904, 0.01205, -0.73392,
 15:04:57.643,d3:c7:8d:a5:a9:b5, 2015-01-01 00:05:38.220, -0.044, 0.009, 0.989, 0, -0.061, 0, 0.461, 2.538, -94.455, -42.336, -3.430, -23.422, 23.43, 0.67877, 0.01904, 0.01205, -0.73392,
 15:04:57.643,d3:c7:8d:a5:a9:b5, 2015-01-01 00:05:38.220, -0.044, 0.008, 0.988, 0, 0, 0, 0.461, 2.538, -94.455, -42.336, -3.430, -23.422, 23.43, 0.67877, 0.01904, 0.01205, -0.73392,
 15:04:57.702,d3:c7:8d:a5:a9:b5, 2015-01-01 00:05:38.220, -0.045, 0.008, 0.988, 0, 0, 0, 0.461, 2.538, -94.455, -42.336, -3.430, -23.422, 23.43, 0.67877, 0.01904, 0.01205, -0.73392,
 15:04:57.702,d3:c7:8d:a5:a9:b5, 2015-01-01 00:05:38.220, -0.045, 0.008, 0.987, 0, -0.061, 0, 0.461, 2.538, -94.455, -42.336, -3.430, -23.422, 23.43, 0.67877, 0.01904, 0.01205, -0.73392,
 15:04:57.702,d3:c7:8d:a5:a9:b5, 2015-01-01 00:05:38.220, -0.044, 0.008, 0.987, 0, -0.061, 0, 0.461, 2.538, -94.455, -42.336, -3.430, -23.422, 23.43, 0.67877, 0.01904, 0.01205, -0.73392,
 15:04:57.702,d3:c7:8d:a5:a9:b5, 2015-01-01 00:05:38.220, -0.042, 0.008, 0.987, 0, -0.305, 0, 0.461, 2.532, -94.455, -42.336, -3.430, -23.422, 23.43, 0.67877, 0.01904, 0.01205, -0.73392,
 15:04:57.732,d3:c7:8d:a5:a9:b5, 2015-01-01 00:05:38.575, -0.042, 0.008, 0.988, 0.061, -0.244, 0, 0.461, 2.527, -94.455, -42.336, -3.430, -23.422, 23.43, 0.67877, 0.01904, 0.01205, -0.73392,
 15:04:57.732,d3:c7:8d:a5:a9:b5, 2015-01-01 00:05:38.575, -0.041, 0.008, 0.988, 0.061, -0.244, 0, 0.461, 2.527, -94.455, -42.336, -3.430, -23.422, 23.43, 0.67877, 0.01904, 0.01205, -0.73392,
 15:04:57.732,d3:c7:8d:a5:a9:b5, 2015-01-01 00:05:38.575, -0.041, 0.01, 0.988, 0, -0.122, 0, 0.461, 2.527, -94.455, -42.336, -3.430, -23.422, 23.43, 0.67877, 0.01904, 0.01205, -0.73392,
 15:04:57.732,d3:c7:8d:a5:a9:b5, 2015-01-01 00:05:38.575, -0.041, 0.01, 0.988, 0, -0.122, 0, 0.461, 2.521, -94.455, -42.336, -3.430, -23.422, 23.43, 0.67877, 0.01904, 0.01205, -0.73392,
 15:04:57.763,d3:c7:8d:a5:a9:b5, 2015-01-01 00:05:38.575, -0.041, 0.008, 0.987, -0.061, 0, 0, 0.461, 2.521, -94.455, -42.336, -3.430, -23.422, 23.43, 0.67877, 0.01904, 0.01205, -0.73392,
 15:04:57.763,d3:c7:8d:a5:a9:b5, 2015-01-01 00:05:38.575, -0.041, 0.008, 0.987, -0.061, 0, 0, 0.461, 2.521, -94.455, -42.336, -3.430, -23.422, 23.43, 0.67877, 0.01904, 0.01205, -0.73392,
 15:04:57.763,d3:c7:8d:a5:a9:b5, 2015-01-01 00:05:38.575, -0.041, 0.008, 0.988, -0.183, 0.061, 0, 0.461, 2.521, -94.455, -42.336, -3.430, -23.422, 23.43, 0.67877, 0.01904, 0.01205, -0.73392,
 15:04:57.763,d3:c7:8d:a5:a9:b5, 2015-01-01 00:05:38.575, -0.042, 0.008, 0.988, -0.183, 0.061, 0, 0.461, 2.521, -94.455, -42.336, -3.430, -23.422, 23.43, 0.67877, 0.01904, 0.01205, -0.73392,
 15:04:57.822,d3:c7:8d:a5:a9:b5, 2015-01-01 00:05:38.575, -0.042, 0.007, 0.988, -0.183, 0.183, 0, 0.456, 2.521, -94.455, -42.336, -3.430, -23.422, 23.43, 0.67877, 0.01904, 0.01205, -0.73392,
 15:04:57.822,d3:c7:8d:a5:a9:b5, 2015-01-01 00:05:38.575, -0.042, 0.007, 0.988, -0.183, 0.183, 0, 0.456, 2.527, -94.455, -42.336, -3.430, -23.422, 23.43, 0.67877, 0.01904, 0.01205, -0.73392,
 15:04:57.822,d3:c7:8d:a5:a9:b5, 2015-01-01 00:05:38.575, -0.042, 0.009, 0.989, 0, 0.061, 0, 0.456, 2.527, -94.455, -42.336, -3.430, -23.422, 23.43, 0.67877, 0.01904, 0.01205, -0.73392,
 15:04:57.823,d3:c7:8d:a5:a9:b5, 2015-01-01 00:05:38.575, -0.042, 0.009, 0.989, 0, 0.061, 0, 0.456, 2.527, -94.455, -42.336, -3.430, -23.422, 23.43, 0.67877, 0.01904, 0.01205, -0.73392,
 15:04:57.852,d3:c7:8d:a5:a9:b5, 2015-01-01 00:05:38.575, -0.042, 0.008, 0.988, 0, 0.122, 0, 0.456, 2.527, -94.455, -42.336, -3.430, -23.422, 23.43, 0.67877, 0.01904, 0.01205, -0.73392,
 15:04:57.852,d3:c7:8d:a5:a9:b5, 2015-01-01 00:05:38.575, -0.042, 0.008, 0.988, 0, 0.122, 0, 0.456, 2.527, -94.455, -42.336, -3.430, -23.422, 23.43, 0.67877, 0.01904, 0.01205, -0.73392,
 15:04:57.852,d3:c7:8d:a5:a9:b5, 2015-01-01 00:05:38.575, -0.042, 0.007, 0.988, 0.183, 0.305, 0, 0.456, 2.527, -94.455, -42.336, -3.430, -23.422, 23.43, 0.67877, 0.01904, 0.01205, -0.73392,
 15:04:57.852,d3:c7:8d:a5:a9:b5, 2015-01-01 00:05:38.575, -0.043, 0.007, 0.988, 0.183, 0.305, 0, 0.461, 2.532, -94.455, -42.336, -3.430, -23.422, 23.43, 0.67877, 0.01904, 0.01205, -0.73392,
 15:04:57.912,d3:c7:8d:a5:a9:b5, 2015-01-01 00:05:38.575, -0.043, 0.007, 0.988, 0.244, 0.488, 0, 0.461, 2.538, -94.455, -42.336, -3.430, -23.422, 23.43, 0.67877, 0.01904, 0.01205, -0.73392,
 15:04:57.912,d3:c7:8d:a5:a9:b5, 2015-01-01 00:05:38.575, -0.046, 0.007, 0.988, 0.244, 0.488, 0, 0.461, 2.538, -94.455, -42.336, -3.430, -23.422, 23.43, 0.67877, 0.01904, 0.01205, -0.73392,
 15:04:57.912,d3:c7:8d:a5:a9:b5, 2015-01-01 00:05:38.575, -0.046, 0.01, 0.986, 0.183, 0.488, 0, 0.467, 2.543, -94.455, -42.336, -3.430, -23.422, 23.43, 0.67877, 0.01904, 0.01205, -0.73392,
 15:04:57.912,d3:c7:8d:a5:a9:b5, 2015-01-01 00:05:38.575, -0.047, 0.01, 0.986, 0.183, 0.488, 0, 0.467, 2.549, -94.455, -42.336, -3.430, -23.422, 23.43, 0.67877, 0.01904, 0.01205, -0.73392,
 15:04:57.942,d3:c7:8d:a5:a9:b5, 2015-01-01 00:05:38.575, -0.047, 0.011, 0.988, -0.122, 0.061, 0, 0.467, 2.549, -94.455, -42.336, -3.430, -23.422, 23.43, 0.67877, 0.01904, 0.01205, -0.73392,
 15:04:57.942,d3:c7:8d:a5:a9:b5, 2015-01-01 00:05:38.575, -0.042, 0.011, 0.988, -0.122, 0.061, 0, 0.467, 2.554, -94.455, -42.336, -3.430, -23.422, 23.43, 0.67877, 0.01904, 0.01205, -0.73392,
 15:04:57.942,d3:c7:8d:a5:a9:b5, 2015-01-01 00:05:38.575, -0.042, 0.009, 0.987, -0.305, -0.122, 0, 0.467, 2.549, -94.455, -42.336, -3.430, -23.422, 23.43, 0.67877, 0.01904, 0.01205, -0.73392,
 15:04:57.942,d3:c7:8d:a5:a9:b5, 2015-01-01 00:05:38.575, -0.04, 0.009, 0.987, -0.305, -0.122, 0, 0.461, 2.549, -94.455, -42.336, -3.430, -23.422, 23.43, 0.67877, 0.01904, 0.01205, -0.73392,
 15:04:57.972,d3:c7:8d:a5:a9:b5, 2015-01-01 00:05:38.575, -0.04, 0.004, 0.99, 0, -0.061, 0, 0.461, 2.549, -94.455, -42.238, -3.430, -23.520, 23.43, 0.67877, 0.01904, 0.01205, -0.73392,
 15:04:57.972,d3:c7:8d:a5:a9:b5, 2015-01-01 00:05:38.575, -0.037, 0.004, 0.99, 0, -0.061, 0, 0.461, 2.549, -94.455, -42.238, -3.430, -23.520, 23.43, 0.67877, 0.01904, 0.01205, -0.73392,
 15:04:57.972,d3:c7:8d:a5:a9:b5, 2015-01-01 00:05:38.575, -0.037, 0.006, 0.988, 0.366, 0.305, 0, 0.461, 2.549, -94.455, -42.238, -3.430, -23.520, 23.43, 0.67877, 0.01904, 0.01205, -0.73392,
 15:04:57.972,d3:c7:8d:a5:a9:b5, 2015-01-01 00:05:38.575, -0.042, 0.006, 0.988, 0.366, 0.305, 0, 0.467, 2.549, -94.455, -42.238, -3.430, -23.520, 23.43, 0.67877, 0.01904, 0.01205, -0.73392,
 15:04:58.003,d3:c7:8d:a5:a9:b5, 2015-01-01 00:05:38.575, -0.042, 0.007, 0.988, 0.61, 0.732, 0, 0.472, 2.554, -94.455, -42.238, -3.430, -23.520, 23.43, 0.67877, 0.01904, 0.01205, -0.73392,
 15:04:58.003,d3:c7:8d:a5:a9:b5, 2015-01-01 00:05:38.575, -0.048, 0.007, 0.988, 0.61, 0.732, 0, 0.478, 2.56, -94.455, -42.238, -3.430, -23.520, 23.43, 0.67877, 0.01904, 0.01205, -0.73392,
 15:04:58.003,d3:c7:8d:a5:a9:b5, 2015-01-01 00:05:38.575, -0.048, 0.013, 0.986, 0.122, 0.549, 0, 0.483, 2.565, -94.455, -42.238, -3.430, -23.520, 23.43, 0.67877, 0.01904, 0.01205, -0.73392,
 15:04:58.003,d3:c7:8d:a5:a9:b5, 2015-01-01 00:05:38.575, -0.05, 0.013, 0.986, 0.122, 0.549, 0, 0.483, 2.571, -94.455, -42.238, -3.430, -23.520, 23.43, 0.67877, 0.01904, 0.01205, -0.73392,
 15:04:58.063,d3:c7:8d:a5:a9:b5, 2015-01-01 00:05:38.575, -0.05, 0.011, 0.987, -0.427, -0.061, -0.305, 0.483, 2.576, -94.455, -42.238, -3.430, -23.520, 23.43, 0.6788, 0.01935, 0.01212, -0.73389,
 15:04:58.063,d3:c7:8d:a5:a9:b5, 2015-01-01 00:05:38.575, -0.047, 0.011, 0.987, -0.427, -0.061, -0.305, 0.478, 2.576, -94.455, -42.238, -3.430, -23.520, 23.43, 0.6788, 0.01935, 0.01212, -0.73389,
 15:04:58.063,d3:c7:8d:a5:a9:b5, 2015-01-01 00:05:38.575, -0.047, 0.008, 0.988, -0.793, -0.61, -0.183, 0.472, 2.571, -94.46, -42.238, -3.430, -23.520, 23.43, 0.6788, 0.01935, 0.01212, -0.73389,
 15:04:58.063,d3:c7:8d:a5:a9:b5, 2015-01-01 00:05:38.575, -0.04, 0.008, 0.988, -0.793, -0.61, -0.183, 0.461, 2.565, -94.46, -42.238, -3.430, -23.520, 23.43, 0.6788, 0.01935, 0.01212, -0.73389,
 15:04:58.094,d3:c7:8d:a5:a9:b5, 2015-01-01 00:05:38.965, -0.04, 0.005, 0.989, -0.427, -0.427, -0.061, 0.456, 2.56, -94.46, -42.238, -3.430, -23.520, 23.43, 0.6788, 0.01935, 0.01212, -0.73389,
 15:04:58.094,d3:c7:8d:a5:a9:b5, 2015-01-01 00:05:38.965, -0.039, 0.005, 0.989, -0.427, -0.427, -0.061, 0.456, 2.554, -94.46, -42.238, -3.430, -23.520, 23.43, 0.6788, 0.01935, 0.01212, -0.73389,
 15:04:58.094,d3:c7:8d:a5:a9:b5, 2015-01-01 00:05:38.965, -0.039, 0.007, 0.988, 0.244, 0.427, 0.061, 0.45, 2.554, -94.46, -42.238, -3.430, -23.520, 23.43, 0.6788, 0.01935, 0.01212, -0.73389,
 15:04:58.094,d3:c7:8d:a5:a9:b5, 2015-01-01 00:05:38.965, -0.045, 0.007, 0.988, 0.244, 0.427, 0.061, 0.456, 2.56, -94.46, -42.238, -3.430, -23.520, 23.43, 0.6788, 0.01935, 0.01212, -0.73389,
 15:04:58.123,d3:c7:8d:a5:a9:b5, 2015-01-01 00:05:38.965, -0.045, 0.008, 0.989, 0.61, 0.671, 0, 0.461, 2.565, -94.46, -42.238, -3.430, -23.520, 23.43, 0.6788, 0.01935, 0.01212, -0.73389,
 15:04:58.123,d3:c7:8d:a5:a9:b5, 2015-01-01 00:05:38.965, -0.048, 0.008, 0.989, 0.61, 0.671, 0, 0.467, 2.571, -94.46, -42.238, -3.430, -23.520, 23.43, 0.6788, 0.01935, 0.01212, -0.73389,
 15:04:58.123,d3:c7:8d:a5:a9:b5, 2015-01-01 00:05:38.965, -0.048, 0.01, 0.987, 0.183, 0.366, 0, 0.472, 2.576, -94.46, -42.238, -3.430, -23.520, 23.43, 0.6788, 0.01935, 0.01212, -0.73389,
 15:04:58.123,d3:c7:8d:a5:a9:b5, 2015-01-01 00:05:38.965, -0.046, 0.01, 0.987, 0.183, 0.366, 0, 0.472, 2.582, -94.46, -42.238, -3.430, -23.520, 23.43, 0.6788, 0.01935, 0.01212, -0.73389,
 15:04:58.183,d3:c7:8d:a5:a9:b5, 2015-01-01 00:05:38.965, -0.046, 0.008, 0.987, -0.244, -0.305, -0.061, 0.472, 2.582, -94.46, -42.238, -3.430, -23.520, 23.43, 0.6788, 0.01935, 0.01212, -0.73389,
 15:04:58.183,d3:c7:8d:a5:a9:b5, 2015-01-01 00:05:38.965, -0.042, 0.008, 0.987, -0.244, -0.305, -0.061, 0.467, 2.576, -94.46, -42.238, -3.430, -23.520, 23.43, 0.6788, 0.01935, 0.01212, -0.73389,
 15:04:58.183,d3:c7:8d:a5:a9:b5, 2015-01-01 00:05:38.965, -0.042, 0.008, 0.988, -0.427, -0.61, -0.061, 0.467, 2.571, -94.46, -42.238, -3.430, -23.520, 23.43, 0.6788, 0.01935, 0.01212, -0.73389,
 15:04:58.183,d3:c7:8d:a5:a9:b5, 2015-01-01 00:05:38.965, -0.039, 0.008, 0.988, -0.427, -0.61, -0.061, 0.461, 2.565, -94.46, -42.238, -3.430, -23.520, 23.43, 0.6788, 0.01935, 0.01212, -0.73389,
 15:04:58.243,d3:c7:8d:a5:a9:b5, 2015-01-01 00:05:38.965, -0.039, 0.006, 0.989, -0.305, -0.366, 0, 0.456, 2.56, -94.46, -42.238, -3.430, -23.520, 23.43, 0.6788, 0.01935, 0.01212, -0.73389,
 15:04:58.243,d3:c7:8d:a5:a9:b5, 2015-01-01 00:05:38.965, -0.041, 0.006, 0.989, -0.305, -0.366, 0, 0.456, 2.554, -94.46, -42.238, -3.430, -23.520, 23.43, 0.6788, 0.01935, 0.01212, -0.73389,
 15:04:58.243,d3:c7:8d:a5:a9:b5, 2015-01-01 00:05:38.965, -0.041, 0.007, 0.988, 0, 0.122, 0, 0.456, 2.56, -94.46, -42.238, -3.430, -23.520, 23.43, 0.6788, 0.01935, 0.01212, -0.73389,
 15:04:58.243,d3:c7:8d:a5:a9:b5, 2015-01-01 00:05:38.965, -0.044, 0.007, 0.988, 0, 0.122, 0, 0.456, 2.56, -94.46, -42.238, -3.430, -23.520, 23.43, 0.6788, 0.01935, 0.01212, -0.73389,
 15:04:58.243,d3:c7:8d:a5:a9:b5, 2015-01-01 00:05:38.965, -0.044, 0.007, 0.987, 0.183, 0.061, 0, 0.456, 2.56, -94.46, -42.238, -3.430, -23.520, 23.43, 0.6788, 0.01935, 0.01212, -0.73389,
 15:04:58.243,d3:c7:8d:a5:a9:b5, 2015-01-01 00:05:38.965, -0.045, 0.007, 0.987, 0.183, 0.061, 0, 0.461, 2.56, -94.46, -42.238, -3.430, -23.520, 23.43, 0.6788, 0.01935, 0.01212, -0.73389,
 15:04:58.243,d3:c7:8d:a5:a9:b5, 2015-01-01 00:05:38.965, -0.045, 0.008, 0.987, 0.549, 0, 0.061, 0.467, 2.56, -94.46, -42.238, -3.430, -23.520, 23.43, 0.6788, 0.01935, 0.01212, -0.73389,
 15:04:58.243,d3:c7:8d:a5:a9:b5, 2015-01-01 00:05:38.965, -0.047, 0.008, 0.987, 0.549, 0, 0.061, 0.472, 2.56, -94.46, -42.238, -3.430, -23.520, 23.43, 0.6788, 0.01935, 0.01212, -0.73389,
 15:04:58.303,d3:c7:8d:a5:a9:b5, 2015-01-01 00:05:38.965, -0.047, 0.01, 0.987, 0.366, 0.061, 0, 0.472, 2.56, -94.46, -42.238, -3.430, -23.520, 23.43, 0.6788, 0.01935, 0.01212, -0.73389,
 15:04:58.303,d3:c7:8d:a5:a9:b5, 2015-01-01 00:05:38.965, -0.048, 0.01, 0.987, 0.366, 0.061, 0, 0.478, 2.56, -94.46, -42.238, -3.430, -23.520, 23.43, 0.6788, 0.01935, 0.01212, -0.73389,
 15:04:58.303,d3:c7:8d:a5:a9:b5, 2015-01-01 00:05:38.965, -0.048, 0.011, 0.986, -0.183, -0.244, 0, 0.478, 2.554, -94.46, -42.238, -3.430, -23.520, 23.43, 0.6788, 0.01935, 0.01212, -0.73389,
 15:04:58.303,d3:c7:8d:a5:a9:b5, 2015-01-01 00:05:38.965, -0.043, 0.011, 0.986, -0.183, -0.244, 0, 0.472, 2.554, -94.46, -42.238, -3.430, -23.520, 23.43, 0.6788, 0.01935, 0.01212, -0.73389,
 15:04:58.334,d3:c7:8d:a5:a9:b5, 2015-01-01 00:05:38.965, -0.043, 0.008, 0.989, -0.61, -0.671, -0.061, 0.467, 2.549, -94.46, -42.140, -3.430, -23.422, 23.43, 0.6788, 0.01935, 0.01212, -0.73389,
 15:04:58.334,d3:c7:8d:a5:a9:b5, 2015-01-01 00:05:38.965, -0.038, 0.008, 0.989, -0.61, -0.671, -0.061, 0.461, 2.543, -94.46, -42.140, -3.430, -23.422, 23.43, 0.6788, 0.01935, 0.01212, -0.73389,
 15:04:58.334,d3:c7:8d:a5:a9:b5, 2015-01-01 00:05:38.965, -0.038, 0.007, 0.988, -0.549, -0.488, 0, 0.456, 2.538, -94.46, -42.140, -3.430, -23.422, 23.43, 0.6788, 0.01935, 0.01212, -0.73389,
 15:04:58.334,d3:c7:8d:a5:a9:b5, 2015-01-01 00:05:38.965, -0.035, 0.007, 0.988, -0.549, -0.488, 0, 0.45, 2.532, -94.46, -42.140, -3.430, -23.422, 23.43, 0.6788, 0.01935, 0.01212, -0.73389,
 15:04:58.362,d3:c7:8d:a5:a9:b5, 2015-01-01 00:05:38.965, -0.035, 0.006, 0.991, -0.122, 0, 0, 0.45, 2.532, -94.46, -42.140, -3.430, -23.422, 23.43, 0.6788, 0.01935, 0.01212, -0.73389,
 15:04:58.362,d3:c7:8d:a5:a9:b5, 2015-01-01 00:05:38.965, -0.04, 0.006, 0.991, -0.122, 0, 0, 0.45, 2.532, -94.46, -42.140, -3.430, -23.422, 23.43, 0.6788, 0.01935, 0.01212, -0.73389,
 15:04:58.362,d3:c7:8d:a5:a9:b5, 2015-01-01 00:05:38.965, -0.04, 0.007, 0.989, 0.305, 0.732, 0, 0.45, 2.538, -94.46, -42.140, -3.430, -23.422, 23.43, 0.6788, 0.01935, 0.01212, -0.73389,
 15:04:58.362,d3:c7:8d:a5:a9:b5, 2015-01-01 00:05:38.965, -0.045, 0.007, 0.989, 0.305, 0.732, 0, 0.456, 2.543, -94.46, -42.140, -3.430, -23.422, 23.43, 0.6788, 0.01935, 0.01212, -0.73389,
 15:04:58.423,d3:c7:8d:a5:a9:b5, 2015-01-01 00:05:38.965, -0.045, 0.009, 0.986, 0.305, 0.732, 0, 0.456, 2.549, -94.46, -42.140, -3.430, -23.422, 23.43, 0.67874, 0.01895, 0.01212, -0.73395,
 15:04:58.423,d3:c7:8d:a5:a9:b5, 2015-01-01 00:05:38.965, -0.049, 0.009, 0.986, 0.305, 0.732, 0, 0.461, 2.56, -94.46, -42.140, -3.430, -23.422, 23.43, 0.67874, 0.01895, 0.01212, -0.73395,
 15:04:58.423,d3:c7:8d:a5:a9:b5, 2015-01-01 00:05:38.965, -0.049, 0.009, 0.988, 0.183, 0.244, 0, 0.461, 2.56, -94.46, -42.140, -3.430, -23.422, 23.43, 0.67874, 0.01895, 0.01212, -0.73395,
 15:04:58.423,d3:c7:8d:a5:a9:b5, 2015-01-01 00:05:38.965, -0.049, 0.009, 0.988, 0.183, 0.244, 0, 0.467, 2.56, -94.46, -42.140, -3.430, -23.422, 23.43, 0.67874, 0.01895, 0.01212, -0.73395,
 15:04:58.454,d3:c7:8d:a5:a9:b5, 2015-01-01 00:05:39.320, -0.049, 0.009, 0.987, 0, -0.061, 0, 0.467, 2.56, -94.46, -42.140, -3.430, -23.422, 23.43, 0.67874, 0.01895, 0.01212, -0.73395,
 15:04:58.454,d3:c7:8d:a5:a9:b5, 2015-01-01 00:05:39.320, -0.045, 0.009, 0.987, 0, -0.061, 0, 0.467, 2.56, -94.46, -42.140, -3.430, -23.422, 23.43, 0.67874, 0.01895, 0.01212, -0.73395,
 15:04:58.454,d3:c7:8d:a5:a9:b5, 2015-01-01 00:05:39.320, -0.045, 0.009, 0.987, 0, -0.244, -0.061, 0.467, 2.56, -94.46, -42.140, -3.430, -23.422, 23.43, 0.67874, 0.01895, 0.01212, -0.73395,
 15:04:58.454,d3:c7:8d:a5:a9:b5, 2015-01-01 00:05:39.320, -0.042, 0.009, 0.987, 0, -0.244, -0.061, 0.467, 2.554, -94.46, -42.140, -3.430, -23.422, 23.43, 0.67874, 0.01895, 0.01212, -0.73395,
 15:04:58.483,d3:c7:8d:a5:a9:b5, 2015-01-01 00:05:39.320, -0.042, 0.008, 0.987, -0.122, -0.122, -0.061, 0.467, 2.554, -94.46, -42.140, -3.430, -23.422, 23.43, 0.67874, 0.01895, 0.01212, -0.73395,
 15:04:58.483,d3:c7:8d:a5:a9:b5, 2015-01-01 00:05:39.320, -0.042, 0.008, 0.987, -0.122, -0.122, -0.061, 0.461, 2.554, -94.466, -42.140, -3.430, -23.422, 23.43, 0.67874, 0.01895, 0.01212, -0.73395,
 15:04:58.483,d3:c7:8d:a5:a9:b5, 2015-01-01 00:05:39.320, -0.042, 0.008, 0.988, -0.122, 0, -0.061, 0.461, 2.554, -94.466, -42.140, -3.430, -23.422, 23.43, 0.67874, 0.01895, 0.01212, -0.73395,
 15:04:58.483,d3:c7:8d:a5:a9:b5, 2015-01-01 00:05:39.320, -0.043, 0.008, 0.988, -0.122, 0, -0.061, 0.461, 2.554, -94.466, -42.140, -3.430, -23.422, 23.43, 0.67874, 0.01895, 0.01212, -0.73395,
 15:04:58.542,d3:c7:8d:a5:a9:b5, 2015-01-01 00:05:39.320, -0.043, 0.008, 0.989, -0.183, 0, -0.122, 0.461, 2.554, -94.466, -42.140, -3.430, -23.422, 23.43, 0.67874, 0.01895, 0.01212, -0.73395,
 15:04:58.542,d3:c7:8d:a5:a9:b5, 2015-01-01 00:05:39.320, -0.043, 0.008, 0.989, -0.183, 0, -0.122, 0.456, 2.554, -94.466, -42.140, -3.430, -23.422, 23.43, 0.67874, 0.01895, 0.01212, -0.73395,
 15:04:58.542,d3:c7:8d:a5:a9:b5, 2015-01-01 00:05:39.320, -0.043, 0.007, 0.987, -0.122, -0.244, -0.061, 0.456, 2.549, -94.466, -42.140, -3.430, -23.422, 23.43, 0.67874, 0.01895, 0.01212, -0.73395,
 15:04:58.542,d3:c7:8d:a5:a9:b5, 2015-01-01 00:05:39.320, -0.042, 0.007, 0.987, -0.122, -0.244, -0.061, 0.456, 2.549, -94.466, -42.140, -3.430, -23.422, 23.43, 0.67874, 0.01895, 0.01212, -0.73395,
 15:04:58.573,d3:c7:8d:a5:a9:b5, 2015-01-01 00:05:39.320, -0.042, 0.006, 0.987, 0, -0.488, 0, 0.456, 2.543, -94.466, -42.140, -3.430, -23.422, 23.43, 0.67874, 0.01895, 0.01212, -0.73395,
 15:04:58.573,d3:c7:8d:a5:a9:b5, 2015-01-01 00:05:39.320, -0.043, 0.006, 0.987, 0, -0.488, 0, 0.456, 2.538, -94.466, -42.140, -3.430, -23.422, 23.43, 0.67874, 0.01895, 0.01212, -0.73395,
 15:04:58.573,d3:c7:8d:a5:a9:b5, 2015-01-01 00:05:39.320, -0.043, 0.006, 0.989, 0.183, -0.427, 0, 0.456, 2.532, -94.466, -42.140, -3.430, -23.422, 23.43, 0.67874, 0.01895, 0.01212, -0.73395,
 15:04:58.573,d3:c7:8d:a5:a9:b5, 2015-01-01 00:05:39.320, -0.041, 0.006, 0.989, 0.183, -0.427, 0, 0.461, 2.527, -94.466, -42.140, -3.430, -23.422, 23.43, 0.67874, 0.01895, 0.01212, -0.73395,
 15:04:58.604,d3:c7:8d:a5:a9:b5, 2015-01-01 00:05:39.320, -0.044, 0.01, 0.988, 0.244, -0.122, 0, 0.461, 2.527, -94.466, -42.140, -3.430, -23.422, 23.43, 0.67874, 0.01895, 0.01212, -0.73395,
 15:04:58.604,d3:c7:8d:a5:a9:b5, 2015-01-01 00:05:39.320, -0.044, 0.008, 0.987, 0.366, 0, 0, 0.461, 2.527, -94.466, -42.140, -3.430, -23.422, 23.43, 0.67874, 0.01895, 0.01212, -0.73395,
 15:04:58.604,d3:c7:8d:a5:a9:b5, 2015-01-01 00:05:39.320, -0.046, 0.008, 0.987, 0.366, 0, 0, 0.467, 2.527, -94.466, -42.140, -3.430, -23.422, 23.43, 0.67874, 0.01895, 0.01212, -0.73395,
 15:04:58.604,d3:c7:8d:a5:a9:b5, 2015-01-01 00:05:39.320, -0.046, 0.011, 0.988, 0.244, -0.122, 0, 0.472, 2.527, -94.466, -42.140, -3.430, -23.422, 23.43, 0.67874, 0.01895, 0.01212, -0.73395,
 15:04:58.663,d3:c7:8d:a5:a9:b5, 2015-01-01 00:05:39.320, -0.042, 0.011, 0.988, 0.244, -0.122, 0, 0.472, 2.527, -94.466, -42.140, -3.430, -23.422, 23.43, 0.67874, 0.01895, 0.01212, -0.73395,
 15:04:58.663,d3:c7:8d:a5:a9:b5, 2015-01-01 00:05:39.320, -0.042, 0.008, 0.987, 0, -0.183, 0, 0.472, 2.521, -94.466, -42.140, -3.430, -23.422, 23.43, 0.67874, 0.01895, 0.01212, -0.73395,
 15:04:58.663,d3:c7:8d:a5:a9:b5, 2015-01-01 00:05:39.320, -0.043, 0.008, 0.987, 0, -0.183, 0, 0.472, 2.521, -94.466, -42.140, -3.430, -23.422, 23.43, 0.67874, 0.01895, 0.01212, -0.73395,
 15:04:58.663,d3:c7:8d:a5:a9:b5, 2015-01-01 00:05:39.320, -0.043, 0.008, 0.988, 0, -0.183, 0, 0.472, 2.521, -94.466, -42.140, -3.430, -23.422, 23.43, 0.67874, 0.01895, 0.01212, -0.73395,
 15:04:58.693,d3:c7:8d:a5:a9:b5, 2015-01-01 00:05:39.320, -0.04, 0.008, 0.988, 0, -0.183, 0, 0.472, 2.516, -94.466, -42.238, -3.528, -23.324, 23.43, 0.67874, 0.01895, 0.01212, -0.73395,
 15:04:58.693,d3:c7:8d:a5:a9:b5, 2015-01-01 00:05:39.320, -0.04, 0.008, 0.988, 0.061, -0.244, 0, 0.472, 2.516, -94.466, -42.238, -3.528, -23.324, 23.43, 0.67874, 0.01895, 0.01212, -0.73395,
 15:04:58.693,d3:c7:8d:a5:a9:b5, 2015-01-01 00:05:39.320, -0.04, 0.008, 0.988, 0.061, -0.244, 0, 0.478, 2.51, -94.466, -42.238, -3.528, -23.324, 23.43, 0.67874, 0.01895, 0.01212, -0.73395,
 15:04:58.693,d3:c7:8d:a5:a9:b5, 2015-01-01 00:05:39.320, -0.04, 0.007, 0.989, 0.122, -0.061, 0, 0.478, 2.51, -94.466, -42.238, -3.528, -23.324, 23.43, 0.67874, 0.01895, 0.01212, -0.73395,
 15:04:58.723,d3:c7:8d:a5:a9:b5, 2015-01-01 00:05:39.320, -0.041, 0.007, 0.989, 0.122, -0.061, 0, 0.478, 2.51, -94.466, -42.238, -3.528, -23.324, 23.43, 0.67874, 0.01895, 0.01212, -0.73395,
 15:04:58.723,d3:c7:8d:a5:a9:b5, 2015-01-01 00:05:39.320, -0.041, 0.008, 0.987, 0.183, 0.122, 0, 0.478, 2.51, -94.466, -42.238, -3.528, -23.324, 23.43, 0.67874, 0.01895, 0.01212, -0.73395,
 15:04:58.723,d3:c7:8d:a5:a9:b5, 2015-01-01 00:05:39.320, -0.042, 0.008, 0.987, 0.183, 0.122, 0, 0.483, 2.51, -94.466, -42.238, -3.528, -23.324, 23.43, 0.67874, 0.01895, 0.01212, -0.73395,
 15:04:58.723,d3:c7:8d:a5:a9:b5, 2015-01-01 00:05:39.320, -0.042, 0.008, 0.988, 0.366, 0.122, 0, 0.483, 2.51, -94.466, -42.238, -3.528, -23.324, 23.43, 0.67874, 0.01895, 0.01212, -0.73395,
 15:04:58.784,d3:c7:8d:a5:a9:b5, 2015-01-01 00:05:39.320, -0.046, 0.008, 0.988, 0.366, 0.122, 0, 0.489, 2.51, -94.466, -42.238, -3.528, -23.324, 23.43, 0.67871, 0.01895, 0.01178, -0.73398,
 15:04:58.784,d3:c7:8d:a5:a9:b5, 2015-01-01 00:05:39.320, -0.046, 0.01, 0.988, 0.366, 0.244, 0, 0.489, 2.516, -94.466, -42.238, -3.528, -23.324, 23.43, 0.67871, 0.01895, 0.01178, -0.73398,
 15:04:58.784,d3:c7:8d:a5:a9:b5, 2015-01-01 00:05:39.320, -0.046, 0.01, 0.988, 0.366, 0.244, 0, 0.494, 2.516, -94.466, -42.238, -3.528, -23.324, 23.43, 0.67871, 0.01895, 0.01178, -0.73398,
 15:04:58.784,d3:c7:8d:a5:a9:b5, 2015-01-01 00:05:39.320, -0.046, 0.01, 0.987, 0.183, 0, 0, 0.5, 2.516, -94.466, -42.238, -3.528, -23.324, 23.43, 0.67871, 0.01895, 0.01178, -0.73398,
 15:04:58.813,d3:c7:8d:a5:a9:b5, 2015-01-01 00:05:39.680, -0.044, 0.01, 0.987, 0.183, 0, 0, 0.5, 2.516, -94.466, -42.238, -3.528, -23.324, 23.43, 0.67871, 0.01895, 0.01178, -0.73398,
 15:04:58.813,d3:c7:8d:a5:a9:b5, 2015-01-01 00:05:39.680, -0.044, 0.009, 0.987, 0.061, -0.366, 0, 0.5, 2.516, -94.466, -42.238, -3.528, -23.324, 23.43, 0.67871, 0.01895, 0.01178, -0.73398,
 15:04:58.813,d3:c7:8d:a5:a9:b5, 2015-01-01 00:05:39.680, -0.04, 0.009, 0.987, 0.061, -0.366, 0, 0.5, 2.51, -94.466, -42.238, -3.528, -23.324, 23.43, 0.67871, 0.01895, 0.01178, -0.73398,
 15:04:58.813,d3:c7:8d:a5:a9:b5, 2015-01-01 00:05:39.680, -0.04, 0.009, 0.99, 0.244, -0.305, 0, 0.505, 2.51, -94.466, -42.238, -3.528, -23.324, 23.43, 0.67871, 0.01895, 0.01178, -0.73398,
 15:04:58.842,d3:c7:8d:a5:a9:b5, 2015-01-01 00:05:39.680, -0.04, 0.009, 0.99, 0.244, -0.305, 0, 0.505, 2.505, -94.466, -42.238, -3.528, -23.324, 23.43, 0.67871, 0.01895, 0.01178, -0.73398,
 15:04:58.842,d3:c7:8d:a5:a9:b5, 2015-01-01 00:05:39.680, -0.04, 0.008, 0.99, 0.366, 0.122, 0, 0.511, 2.505, -94.466, -42.238, -3.528, -23.324, 23.43, 0.67871, 0.01895, 0.01178, -0.73398,
 15:04:58.842,d3:c7:8d:a5:a9:b5, 2015-01-01 00:05:39.680, -0.041, 0.008, 0.99, 0.366, 0.122, 0, 0.511, 2.505, -94.466, -42.238, -3.528, -23.324, 23.43, 0.67871, 0.01895, 0.01178, -0.73398,
 15:04:58.842,d3:c7:8d:a5:a9:b5, 2015-01-01 00:05:39.680, -0.041, 0.008, 0.985, 0.366, 0.427, 0, 0.516, 2.505, -94.466, -42.238, -3.528, -23.324, 23.43, 0.67871, 0.01895, 0.01178, -0.73398,
 15:04:58.903,d3:c7:8d:a5:a9:b5, 2015-01-01 00:05:39.680, -0.047, 0.008, 0.985, 0.366, 0.427, 0, 0.522, 2.51, -94.466, -42.238, -3.528, -23.324, 23.43, 0.67871, 0.01895, 0.01178, -0.73398,
 15:04:58.903,d3:c7:8d:a5:a9:b5, 2015-01-01 00:05:39.680, -0.047, 0.011, 0.989, 0.122, 0.122, 0, 0.522, 2.516, -94.466, -42.238, -3.528, -23.324, 23.43, 0.67871, 0.01895, 0.01178, -0.73398,
 15:04:58.903,d3:c7:8d:a5:a9:b5, 2015-01-01 00:05:39.680, -0.046, 0.011, 0.989, 0.122, 0.122, 0, 0.522, 2.516, -94.466, -42.238, -3.528, -23.324, 23.43, 0.67871, 0.01895, 0.01178, -0.73398,
 15:04:58.903,d3:c7:8d:a5:a9:b5, 2015-01-01 00:05:39.680, -0.046, 0.011, 0.987, -0.244, -0.427, 0, 0.522, 2.51, -94.466, -42.238, -3.528, -23.324, 23.43, 0.67871, 0.01895, 0.01178, -0.73398,
 15:04:58.933,d3:c7:8d:a5:a9:b5, 2015-01-01 00:05:39.680, -0.042, 0.011, 0.987, -0.244, -0.427, 0, 0.522, 2.51, -94.466, -42.238, -3.528, -23.324, 23.43, 0.67871, 0.01895, 0.01178, -0.73398,
 15:04:58.933,d3:c7:8d:a5:a9:b5, 2015-01-01 00:05:39.680, -0.042, 0.01, 0.989, -0.427, -0.671, 0, 0.516, 2.505, -94.466, -42.238, -3.528, -23.324, 23.43, 0.67871, 0.01895, 0.01178, -0.73398,
 15:04:58.933,d3:c7:8d:a5:a9:b5, 2015-01-01 00:05:39.680, -0.037, 0.01, 0.989, -0.427, -0.671, 0, 0.511, 2.499, -94.466, -42.238, -3.528, -23.324, 23.43, 0.67871, 0.01895, 0.01178, -0.73398,
 15:04:58.933,d3:c7:8d:a5:a9:b5, 2015-01-01 00:05:39.680, -0.037, 0.007, 0.989, -0.122, -0.122, 0, 0.511, 2.494, -94.466, -42.238, -3.528, -23.324, 23.43, 0.67871, 0.01895, 0.01178, -0.73398,
 15:04:58.962,d3:c7:8d:a5:a9:b5, 2015-01-01 00:05:39.680, -0.039, 0.007, 0.989, -0.122, -0.122, 0, 0.511, 2.494, -94.466, -42.238, -3.528, -23.324, 23.43, 0.67871, 0.01895, 0.01178, -0.73398,
 15:04:58.962,d3:c7:8d:a5:a9:b5, 2015-01-01 00:05:39.680, -0.039, 0.007, 0.987, 0.244, 0.488, 0, 0.511, 2.494, -94.466, -42.238, -3.528, -23.324, 23.43, 0.67871, 0.01895, 0.01178, -0.73398,
 15:04:58.962,d3:c7:8d:a5:a9:b5, 2015-01-01 00:05:39.680, -0.044, 0.007, 0.987, 0.244, 0.488, 0, 0.511, 2.499, -94.466, -42.238, -3.528, -23.324, 23.43, 0.67871, 0.01895, 0.01178, -0.73398,
 15:04:58.962,d3:c7:8d:a5:a9:b5, 2015-01-01 00:05:39.680, -0.044, 0.009, 0.989, 0.427, 0.488, 0, 0.516, 2.505, -94.466, -42.238, -3.528, -23.324, 23.43, 0.67871, 0.01895, 0.01178, -0.73398,
 15:04:59.023,d3:c7:8d:a5:a9:b5, 2015-01-01 00:05:39.680, -0.047, 0.009, 0.989, 0.427, 0.488, 0, 0.522, 2.505, -94.466, -42.238, -3.528, -23.324, 23.43, 0.67871, 0.01895, 0.01178, -0.73398,
 15:04:59.023,d3:c7:8d:a5:a9:b5, 2015-01-01 00:05:39.680, -0.047, 0.011, 0.988, 0.122, -0.061, 0, 0.522, 2.51, -94.466, -42.238, -3.528, -23.324, 23.43, 0.67871, 0.01895, 0.01178, -0.73398,
 15:04:59.023,d3:c7:8d:a5:a9:b5, 2015-01-01 00:05:39.680, -0.044, 0.011, 0.988, 0.122, -0.061, 0, 0.527, 2.51, -94.466, -42.238, -3.528, -23.324, 23.43, 0.67871, 0.01895, 0.01178, -0.73398,
 15:04:59.023,d3:c7:8d:a5:a9:b5, 2015-01-01 00:05:39.680, -0.044, 0.011, 0.989, -0.183, -0.488, 0, 0.527, 2.505, -94.466, -42.238, -3.528, -23.324, 23.43, 0.67871, 0.01895, 0.01178, -0.73398,
 15:04:59.054,d3:c7:8d:a5:a9:b5, 2015-01-01 00:05:39.680, -0.038, 0.011, 0.989, -0.183, -0.488, 0, 0.522, 2.499, -94.466, -42.336, -3.528, -23.422, 23.43, 0.67871, 0.01895, 0.01178, -0.73398,
 15:04:59.054,d3:c7:8d:a5:a9:b5, 2015-01-01 00:05:39.680, -0.038, 0.008, 0.988, -0.366, -0.488, 0, 0.522, 2.494, -94.466, -42.336, -3.528, -23.422, 23.43, 0.67871, 0.01895, 0.01178, -0.73398,
 15:04:59.054,d3:c7:8d:a5:a9:b5, 2015-01-01 00:05:39.680, -0.04, 0.008, 0.988, -0.366, -0.488, 0, 0.516, 2.488, -94.466, -42.336, -3.528, -23.422, 23.43, 0.67871, 0.01895, 0.01178, -0.73398,
 15:04:59.054,d3:c7:8d:a5:a9:b5, 2015-01-01 00:05:39.680, -0.04, 0.007, 0.99, 0, 0, 0, 0.516, 2.488, -94.466, -42.336, -3.528, -23.422, 23.43, 0.67871, 0.01895, 0.01178, -0.73398,
 15:04:59.114,d3:c7:8d:a5:a9:b5, 2015-01-01 00:05:39.680, -0.041, 0.007, 0.99, 0, 0, 0, 0.516, 2.488, -94.466, -42.336, -3.528, -23.422, 23.43, 0.67871, 0.01895, 0.01178, -0.73398,
 15:04:59.114,d3:c7:8d:a5:a9:b5, 2015-01-01 00:05:39.680, -0.041, 0.011, 0.989, 0.244, 0.122, 0, 0.522, 2.488, -94.466, -42.336, -3.528, -23.422, 23.43, 0.67871, 0.01895, 0.01178, -0.73398,
 15:04:59.114,d3:c7:8d:a5:a9:b5, 2015-01-01 00:05:39.680, -0.042, 0.011, 0.989, 0.244, 0.122, 0, 0.522, 2.494, -94.466, -42.336, -3.528, -23.422, 23.43, 0.67871, 0.01895, 0.01178, -0.73398,
 15:04:59.114,d3:c7:8d:a5:a9:b5, 2015-01-01 00:05:39.680, -0.042, 0.01, 0.988, 0.244, 0.244, 0, 0.527, 2.494, -94.466, -42.336, -3.528, -23.422, 23.43, 0.67871, 0.01895, 0.01178, -0.73398,
 15:04:59.142,d3:c7:8d:a5:a9:b5, 2015-01-01 00:05:39.680, -0.045, 0.01, 0.988, 0.244, 0.244, 0, 0.527, 2.494, -94.466, -42.336, -3.528, -23.422, 23.43, 0.67874, 0.01907, 0.01141, -0.73398,
 15:04:59.142,d3:c7:8d:a5:a9:b5, 2015-01-01 00:05:39.680, -0.045, 0.009, 0.989, 0.305, 0.244, 0, 0.533, 2.499, -94.466, -42.336, -3.528, -23.422, 23.43, 0.67874, 0.01907, 0.01141, -0.73398,
 15:04:59.142,d3:c7:8d:a5:a9:b5, 2015-01-01 00:05:39.680, -0.044, 0.009, 0.989, 0.305, 0.244, 0, 0.533, 2.499, -94.466, -42.336, -3.528, -23.422, 23.43, 0.67874, 0.01907, 0.01141, -0.73398,
 15:04:59.142,d3:c7:8d:a5:a9:b5, 2015-01-01 00:05:39.680, -0.044, 0.01, 0.986, 0, -0.061, 0, 0.533, 2.499, -94.466, -42.336, -3.528, -23.422, 23.43, 0.67874, 0.01907, 0.01141, -0.73398,
 15:04:59.173,d3:c7:8d:a5:a9:b5, 2015-01-01 00:05:39.680, -0.043, 0.01, 0.986, 0, -0.061, 0, 0.533, 2.499, -94.466, -42.336, -3.528, -23.422, 23.43, 0.67874, 0.01907, 0.01141, -0.73398,
 15:04:59.173,d3:c7:8d:a5:a9:b5, 2015-01-01 00:05:39.680, -0.043, 0.01, 0.988, -0.183, -0.488, 0, 0.533, 2.494, -94.466, -42.336, -3.528, -23.422, 23.43, 0.67874, 0.01907, 0.01141, -0.73398,
 15:04:59.173,d3:c7:8d:a5:a9:b5, 2015-01-01 00:05:39.680, -0.04, 0.01, 0.988, -0.183, -0.488, 0, 0.533, 2.488, -94.466, -42.336, -3.528, -23.422, 23.43, 0.67874, 0.01907, 0.01141, -0.73398,
 15:04:59.173,d3:c7:8d:a5:a9:b5, 2015-01-01 00:05:39.680, -0.04, 0.009, 0.99, -0.183, -0.488, 0, 0.527, 2.483, -94.466, -42.336, -3.528, -23.422, 23.43, 0.67874, 0.01907, 0.01141, -0.73398,
 15:04:59.232,d3:c7:8d:a5:a9:b5, 2015-01-01 00:05:40.065, -0.037, 0.009, 0.99, -0.183, -0.488, 0, 0.527, 2.477, -94.466, -42.336, -3.528, -23.422, 23.43, 0.67874, 0.01907, 0.01141, -0.73398,
 15:04:59.232,d3:c7:8d:a5:a9:b5, 2015-01-01 00:05:40.065, -0.037, 0.008, 0.988, -0.244, -0.244, 0, 0.527, 2.477, -94.466, -42.336, -3.528, -23.422, 23.43, 0.67874, 0.01907, 0.01141, -0.73398,
 15:04:59.232,d3:c7:8d:a5:a9:b5, 2015-01-01 00:05:40.065, -0.04, 0.008, 0.988, -0.244, -0.244, 0, 0.522, 2.472, -94.466, -42.336, -3.528, -23.422, 23.43, 0.67874, 0.01907, 0.01141, -0.73398,
 15:04:59.232,d3:c7:8d:a5:a9:b5, 2015-01-01 00:05:40.065, -0.04, 0.006, 0.989, 0.122, 0.061, 0, 0.527, 2.472, -94.466, -42.336, -3.528, -23.422, 23.43, 0.67874, 0.01907, 0.01141, -0.73398,
 15:04:59.294,d3:c7:8d:a5:a9:b5, 2015-01-01 00:05:40.065, -0.041, 0.006, 0.989, 0.122, 0.061, 0, 0.527, 2.472, -94.466, -42.336, -3.528, -23.422, 23.43, 0.67874, 0.01907, 0.01141, -0.73398,
 15:04:59.294,d3:c7:8d:a5:a9:b5, 2015-01-01 00:05:40.065, -0.041, 0.01, 0.988, 0.427, 0.305, 0, 0.533, 2.477, -94.466, -42.336, -3.528, -23.422, 23.43, 0.67874, 0.01907, 0.01141, -0.73398,
 15:04:59.294,d3:c7:8d:a5:a9:b5, 2015-01-01 00:05:40.065, -0.042, 0.01, 0.988, 0.427, 0.305, 0, 0.533, 2.477, -94.466, -42.336, -3.528, -23.422, 23.43, 0.67874, 0.01907, 0.01141, -0.73398,
 15:04:59.294,d3:c7:8d:a5:a9:b5, 2015-01-01 00:05:40.065, -0.042, 0.012, 0.989, 0.488, 0.488, 0, 0.538, 2.483, -94.466, -42.336, -3.528, -23.422, 23.43, 0.67874, 0.01907, 0.01141, -0.73398,
 15:04:59.294,d3:c7:8d:a5:a9:b5, 2015-01-01 00:05:40.065, -0.044, 0.012, 0.989, 0.488, 0.488, 0, 0.544, 2.488, -94.466, -42.336, -3.528, -23.422, 23.43, 0.67874, 0.01907, 0.01141, -0.73398,
 15:04:59.294,d3:c7:8d:a5:a9:b5, 2015-01-01 00:05:40.065, -0.044, 0.012, 0.988, 0.244, 0.488, 0, 0.549, 2.494, -94.466, -42.336, -3.528, -23.422, 23.43, 0.67874, 0.01907, 0.01141, -0.73398,
 15:04:59.294,d3:c7:8d:a5:a9:b5, 2015-01-01 00:05:40.065, -0.047, 0.012, 0.988, 0.244, 0.488, 0, 0.549, 2.494, -94.466, -42.336, -3.528, -23.422, 23.43, 0.67874, 0.01907, 0.01141, -0.73398,
 15:04:59.295,d3:c7:8d:a5:a9:b5, 2015-01-01 00:05:40.065, -0.047, 0.009, 0.987, 0, 0.244, 0, 0.549, 2.499, -94.466, -42.336, -3.528, -23.422, 23.43, 0.67874, 0.01907, 0.01141, -0.73398,
 15:04:59.353,d3:c7:8d:a5:a9:b5, 2015-01-01 00:05:40.065, -0.044, 0.009, 0.987, 0, 0.244, 0, 0.549, 2.499, -94.466, -42.336, -3.528, -23.422, 23.43, 0.67874, 0.01907, 0.01141, -0.73398,
 15:04:59.353,d3:c7:8d:a5:a9:b5, 2015-01-01 00:05:40.065, -0.044, 0.009, 0.989, 0.061, -0.244, 0, 0.549, 2.499, -94.466, -42.336, -3.528, -23.422, 23.43, 0.67874, 0.01907, 0.01141, -0.73398,
 15:04:59.353,d3:c7:8d:a5:a9:b5, 2015-01-01 00:05:40.065, -0.04, 0.009, 0.989, 0.061, -0.244, 0, 0.549, 2.494, -94.466, -42.336, -3.528, -23.422, 23.43, 0.67874, 0.01907, 0.01141, -0.73398,
 15:04:59.353,d3:c7:8d:a5:a9:b5, 2015-01-01 00:05:40.065, -0.04, 0.01, 0.988, 0, -0.183, 0, 0.549, 2.494, -94.466, -42.336, -3.528, -23.422, 23.43, 0.67874, 0.01907, 0.01141, -0.73398,
 15:04:59.384,d3:c7:8d:a5:a9:b5, 2015-01-01 00:05:40.065, -0.039, 0.01, 0.988, 0, -0.183, 0, 0.549, 2.494, -94.466, -42.336, -3.528, -23.422, 23.43, 0.67874, 0.01907, 0.01141, -0.73398,
 15:04:59.384,d3:c7:8d:a5:a9:b5, 2015-01-01 00:05:40.065, -0.039, 0.01, 0.989, 0, 0.061, 0, 0.549, 2.494, -94.466, -42.336, -3.528, -23.422, 23.43, 0.67874, 0.01907, 0.01141, -0.73398,
 15:04:59.384,d3:c7:8d:a5:a9:b5, 2015-01-01 00:05:40.065, -0.042, 0.01, 0.989, 0, 0.061, 0, 0.549, 2.494, -94.466, -42.336, -3.528, -23.422, 23.43, 0.67874, 0.01907, 0.01141, -0.73398,
 15:04:59.384,d3:c7:8d:a5:a9:b5, 2015-01-01 00:05:40.065, -0.042, 0.009, 0.989, 0, 0.122, 0, 0.549, 2.494, -94.466, -42.336, -3.528, -23.422, 23.43, 0.67874, 0.01907, 0.01141, -0.73398,
 15:04:59.413,d3:c7:8d:a5:a9:b5, 2015-01-01 00:05:40.065, -0.041, 0.009, 0.989, 0, 0.122, 0, 0.549, 2.494, -94.466, -42.336, -3.528, -23.324, 23.43, 0.67874, 0.01907, 0.01141, -0.73398,
 15:04:59.413,d3:c7:8d:a5:a9:b5, 2015-01-01 00:05:40.065, -0.041, 0.011, 0.988, 0.061, 0.061, 0, 0.555, 2.494, -94.466, -42.336, -3.528, -23.324, 23.43, 0.67874, 0.01907, 0.01141, -0.73398,
 15:04:59.413,d3:c7:8d:a5:a9:b5, 2015-01-01 00:05:40.065, -0.042, 0.011, 0.988, 0.061, 0.061, 0, 0.555, 2.494, -94.466, -42.336, -3.528, -23.324, 23.43, 0.67874, 0.01907, 0.01141, -0.73398,
 15:04:59.413,d3:c7:8d:a5:a9:b5, 2015-01-01 00:05:40.065, -0.042, 0.01, 0.99, 0, 0.061, 0, 0.555, 2.494, -94.466, -42.336, -3.528, -23.324, 23.43, 0.67874, 0.01907, 0.01141, -0.73398,
 15:04:59.472,d3:c7:8d:a5:a9:b5, 2015-01-01 00:05:40.065, -0.043, 0.01, 0.99, 0, 0.061, 0, 0.555, 2.494, -94.466, -42.336, -3.528, -23.324, 23.43, 0.67874, 0.01907, 0.01141, -0.73398,
 15:04:59.472,d3:c7:8d:a5:a9:b5, 2015-01-01 00:05:40.065, -0.043, 0.01, 0.987, 0, 0.122, 0, 0.555, 2.494, -94.466, -42.336, -3.528, -23.324, 23.43, 0.67874, 0.01907, 0.01141, -0.73398,
 15:04:59.472,d3:c7:8d:a5:a9:b5, 2015-01-01 00:05:40.065, -0.043, 0.01, 0.987, 0, 0.122, 0, 0.555, 2.494, -94.466, -42.336, -3.528, -23.324, 23.43, 0.67874, 0.01907, 0.01141, -0.73398,
 15:04:59.472,d3:c7:8d:a5:a9:b5, 2015-01-01 00:05:40.065, -0.043, 0.009, 0.988, -0.061, 0, 0, 0.555, 2.494, -94.466, -42.336, -3.528, -23.324, 23.43, 0.67874, 0.01907, 0.01141, -0.73398,
 15:04:59.504,d3:c7:8d:a5:a9:b5, 2015-01-01 00:05:40.065, -0.044, 0.009, 0.988, -0.061, 0, 0, 0.555, 2.494, -94.466, -42.336, -3.528, -23.324, 23.43, 0.67874, 0.01929, 0.01123, -0.73398,
 15:04:59.504,d3:c7:8d:a5:a9:b5, 2015-01-01 00:05:40.065, -0.044, 0.009, 0.989, 0, 0, 0, 0.555, 2.494, -94.466, -42.336, -3.528, -23.324, 23.43, 0.67874, 0.01929, 0.01123, -0.73398,
 15:04:59.504,d3:c7:8d:a5:a9:b5, 2015-01-01 00:05:40.065, -0.043, 0.009, 0.989, 0, 0, 0, 0.555, 2.494, -94.466, -42.336, -3.528, -23.324, 23.43, 0.67874, 0.01929, 0.01123, -0.73398,
 15:04:59.504,d3:c7:8d:a5:a9:b5, 2015-01-01 00:05:40.065, -0.042, 0.011, 0.988, 0, 0, 0, 0.555, 2.494, -94.466, -42.336, -3.528, -23.324, 23.43, 0.67874, 0.01929, 0.01123, -0.73398,
 15:04:59.534,d3:c7:8d:a5:a9:b5, 2015-01-01 00:05:40.065, -0.042, 0.011, 0.988, -0.122, 0, 0, 0.555, 2.494, -94.466, -42.336, -3.528, -23.324, 23.43, 0.67874, 0.01929, 0.01123, -0.73398,
 15:04:59.534,d3:c7:8d:a5:a9:b5, 2015-01-01 00:05:40.065, -0.043, 0.011, 0.988, -0.122, 0, 0, 0.549, 2.494, -94.466, -42.336, -3.528, -23.324, 23.43, 0.67874, 0.01929, 0.01123, -0.73398,
 15:04:59.534,d3:c7:8d:a5:a9:b5, 2015-01-01 00:05:40.065, -0.043, 0.009, 0.989, -0.183, -0.122, 0, 0.549, 2.494, -94.466, -42.336, -3.528, -23.324, 23.43, 0.67874, 0.01929, 0.01123, -0.73398,
 15:04:59.534,d3:c7:8d:a5:a9:b5, 2015-01-01 00:05:40.065, -0.043, 0.009, 0.989, -0.183, -0.122, 0, 0.549, 2.494, -94.466, -42.336, -3.528, -23.324, 23.43, 0.67874, 0.01929, 0.01123, -0.73398,
 15:04:59.592,d3:c7:8d:a5:a9:b5, 2015-01-01 00:05:40.425, -0.043, 0.008, 0.988, -0.183, -0.305, 0, 0.549, 2.488, -94.466, -42.336, -3.528, -23.324, 23.43, 0.67874, 0.01929, 0.01123, -0.73398,
 15:04:59.592,d3:c7:8d:a5:a9:b5, 2015-01-01 00:05:40.425, -0.039, 0.008, 0.988, -0.183, -0.305, 0, 0.544, 2.488, -94.466, -42.336, -3.528, -23.324, 23.43, 0.67874, 0.01929, 0.01123, -0.73398,
 15:04:59.592,d3:c7:8d:a5:a9:b5, 2015-01-01 00:05:40.425, -0.039, 0.011, 0.989, -0.122, -0.366, 0, 0.544, 2.483, -94.466, -42.336, -3.528, -23.324, 23.43, 0.67874, 0.01929, 0.01123, -0.73398,
 15:04:59.592,d3:c7:8d:a5:a9:b5, 2015-01-01 00:05:40.425, -0.04, 0.011, 0.989, -0.122, -0.366, 0, 0.544, 2.483, -94.466, -42.336, -3.528, -23.324, 23.43, 0.67874, 0.01929, 0.01123, -0.73398,
 15:04:59.623,d3:c7:8d:a5:a9:b5, 2015-01-01 00:05:40.425, -0.04, 0.01, 0.989, -0.122, 0, 0, 0.544, 2.477, -94.466, -42.336, -3.528, -23.324, 23.43, 0.67874, 0.01929, 0.01123, -0.73398,
 15:04:59.623,d3:c7:8d:a5:a9:b5, 2015-01-01 00:05:40.425, -0.042, 0.01, 0.989, -0.122, 0, 0, 0.538, 2.477, -94.466, -42.336, -3.528, -23.324, 23.43, 0.67874, 0.01929, 0.01123, -0.73398,
 15:04:59.623,d3:c7:8d:a5:a9:b5, 2015-01-01 00:05:40.425, -0.042, 0.01, 0.987, 0, 0.061, 0, 0.538, 2.477, -94.466, -42.336, -3.528, -23.324, 23.43, 0.67874, 0.01929, 0.01123, -0.73398,
 15:04:59.623,d3:c7:8d:a5:a9:b5, 2015-01-01 00:05:40.425, -0.043, 0.01, 0.987, 0, 0.061, 0, 0.538, 2.477, -94.466, -42.336, -3.528, -23.324, 23.43, 0.67874, 0.01929, 0.01123, -0.73398,
 15:04:59.653,d3:c7:8d:a5:a9:b5, 2015-01-01 00:05:40.425, -0.043, 0.009, 0.988, 0, 0, 0, 0.538, 2.477, -94.466, -42.336, -3.528, -23.324, 23.43, 0.67874, 0.01929, 0.01123, -0.73398,
 15:04:59.653,d3:c7:8d:a5:a9:b5, 2015-01-01 00:05:40.425, -0.042, 0.009, 0.988, 0, 0, 0, 0.538, 2.477, -94.46, -42.336, -3.528, -23.324, 23.43, 0.67874, 0.01929, 0.01123, -0.73398,
 15:04:59.653,d3:c7:8d:a5:a9:b5, 2015-01-01 00:05:40.425, -0.042, 0.011, 0.987, -0.061, 0.061, 0, 0.538, 2.477, -94.46, -42.336, -3.528, -23.324, 23.43, 0.67874, 0.01929, 0.01123, -0.73398,
 15:04:59.653,d3:c7:8d:a5:a9:b5, 2015-01-01 00:05:40.425, -0.044, 0.011, 0.987, -0.061, 0.061, 0, 0.538, 2.477, -94.46, -42.336, -3.528, -23.324, 23.43, 0.67874, 0.01929, 0.01123, -0.73398,
 15:04:59.713,d3:c7:8d:a5:a9:b5, 2015-01-01 00:05:40.425, -0.044, 0.01, 0.99, -0.183, -0.122, 0, 0.538, 2.477, -94.46, -42.336, -3.528, -23.324, 23.43, 0.67874, 0.01929, 0.01123, -0.73398,
 15:04:59.713,d3:c7:8d:a5:a9:b5, 2015-01-01 00:05:40.425, -0.04, 0.01, 0.99, -0.183, -0.122, 0, 0.538, 2.477, -94.46, -42.336, -3.528, -23.324, 23.43, 0.67874, 0.01929, 0.01123, -0.73398,
 15:04:59.713,d3:c7:8d:a5:a9:b5, 2015-01-01 00:05:40.425, -0.04, 0.009, 0.987, -0.122, -0.244, 0, 0.538, 2.477, -94.46, -42.336, -3.528, -23.324, 23.43, 0.67874, 0.01929, 0.01123, -0.73398,
 15:04:59.713,d3:c7:8d:a5:a9:b5, 2015-01-01 00:05:40.425, -0.038, 0.009, 0.987, -0.122, -0.244, 0, 0.533, 2.472, -94.46, -42.336, -3.528, -23.324, 23.43, 0.67874, 0.01929, 0.01123, -0.73398,
 15:04:59.743,d3:c7:8d:a5:a9:b5, 2015-01-01 00:05:40.425, -0.038, 0.006, 0.99, 0.122, 0, 0, 0.533, 2.472, -94.46, -42.336, -3.528, -23.324, 23.43, 0.67874, 0.01929, 0.01123, -0.73398,
 15:04:59.743,d3:c7:8d:a5:a9:b5, 2015-01-01 00:05:40.425, -0.038, 0.006, 0.99, 0.122, 0, 0, 0.538, 2.472, -94.46, -42.336, -3.528, -23.324, 23.43, 0.67874, 0.01929, 0.01123, -0.73398,
 15:04:59.743,d3:c7:8d:a5:a9:b5, 2015-01-01 00:05:40.425, -0.038, 0.01, 0.987, 0.427, 0.244, 0, 0.538, 2.472, -94.46, -42.336, -3.528, -23.324, 23.43, 0.67874, 0.01929, 0.01123, -0.73398,
 15:04:59.743,d3:c7:8d:a5:a9:b5, 2015-01-01 00:05:40.425, -0.043, 0.01, 0.987, 0.427, 0.244, 0, 0.544, 2.472, -94.46, -42.336, -3.528, -23.324, 23.43, 0.67874, 0.01929, 0.01123, -0.73398,
 15:04:59.804,d3:c7:8d:a5:a9:b5, 2015-01-01 00:05:40.425, -0.043, 0.011, 0.989, 0.244, 0.183, 0, 0.549, 2.472, -94.46, -42.336, -3.528, -23.324, 23.43, 0.67874, 0.01929, 0.01123, -0.73398,
 15:04:59.804,d3:c7:8d:a5:a9:b5, 2015-01-01 00:05:40.425, -0.046, 0.011, 0.989, 0.244, 0.183, 0, 0.549, 2.477, -94.46, -42.336, -3.528, -23.324, 23.43, 0.67874, 0.01929, 0.01123, -0.73398,
 15:04:59.804,d3:c7:8d:a5:a9:b5, 2015-01-01 00:05:40.425, -0.046, 0.013, 0.986, -0.305, 0.061, 0, 0.549, 2.477, -94.46, -42.336, -3.528, -23.324, 23.43, 0.67874, 0.01929, 0.01123, -0.73398,
 15:04:59.804,d3:c7:8d:a5:a9:b5, 2015-01-01 00:05:40.425, -0.045, 0.013, 0.986, -0.305, 0.061, 0, 0.544, 2.477, -94.46, -42.336, -3.528, -23.324, 23.43, 0.67874, 0.01929, 0.01123, -0.73398,
 15:04:59.834,d3:c7:8d:a5:a9:b5, 2015-01-01 00:05:40.425, -0.045, 0.011, 0.986, -0.793, -0.244, 0, 0.544, 2.477, -94.46, -42.336, -3.528, -23.324, 23.43, 0.67874, 0.01929, 0.01123, -0.73398,
 15:04:59.834,d3:c7:8d:a5:a9:b5, 2015-01-01 00:05:40.425, -0.042, 0.011, 0.986, -0.793, -0.244, 0, 0.533, 2.472, -94.46, -42.336, -3.528, -23.324, 23.43, 0.67874, 0.01929, 0.01123, -0.73398,
 15:04:59.834,d3:c7:8d:a5:a9:b5, 2015-01-01 00:05:40.425, -0.042, 0.008, 0.99, -0.671, -0.305, 0, 0.527, 2.472, -94.46, -42.336, -3.528, -23.324, 23.43, 0.67874, 0.01929, 0.01123, -0.73398,
 15:04:59.834,d3:c7:8d:a5:a9:b5, 2015-01-01 00:05:40.425, -0.04, 0.008, 0.99, -0.671, -0.305, 0, 0.522, 2.466, -94.46, -42.336, -3.528, -23.324, 23.43, 0.67874, 0.01929, 0.01123, -0.73398,
 15:04:59.862,d3:c7:8d:a5:a9:b5, 2015-01-01 00:05:40.425, -0.04, 0.008, 0.989, -0.305, 0, 0, 0.516, 2.466, -94.46, -42.336, -3.528, -23.324, 23.43, 0.67874, 0.01901, 0.01123, -0.73398,
 15:04:59.862,d3:c7:8d:a5:a9:b5, 2015-01-01 00:05:40.425, -0.041, 0.008, 0.989, -0.305, 0, 0, 0.511, 2.466, -94.46, -42.336, -3.528, -23.324, 23.43, 0.67874, 0.01901, 0.01123, -0.73398,
 15:04:59.862,d3:c7:8d:a5:a9:b5, 2015-01-01 00:05:40.425, -0.041, 0.008, 0.988, 0, 0, 0, 0.511, 2.466, -94.46, -42.336, -3.528, -23.324, 23.43, 0.67874, 0.01901, 0.01123, -0.73398,
 15:04:59.862,d3:c7:8d:a5:a9:b5, 2015-01-01 00:05:40.425, -0.042, 0.008, 0.988, 0, 0, 0, 0.511, 2.466, -94.46, -42.336, -3.528, -23.324, 23.43, 0.67874, 0.01901, 0.01123, -0.73398,
 15:04:59.892,d3:c7:8d:a5:a9:b5, 2015-01-01 00:05:40.425, -0.042, 0.009, 0.989, -0.122, 0, 0, 0.511, 2.466, -94.46, -42.336, -3.528, -23.324, 23.43, 0.67874, 0.01901, 0.01123, -0.73398,
 15:04:59.892,d3:c7:8d:a5:a9:b5, 2015-01-01 00:05:40.425, -0.042, 0.009, 0.989, -0.122, 0, 0, 0.511, 2.466, -94.46, -42.336, -3.528, -23.324, 23.43, 0.67874, 0.01901, 0.01123, -0.73398,
 15:04:59.892,d3:c7:8d:a5:a9:b5, 2015-01-01 00:05:40.425, -0.042, 0.008, 0.989, -0.183, -0.183, 0, 0.511, 2.461, -94.46, -42.336, -3.528, -23.324, 23.43, 0.67874, 0.01901, 0.01123, -0.73398,
 15:04:59.892,d3:c7:8d:a5:a9:b5, 2015-01-01 00:05:40.425, -0.04, 0.008, 0.989, -0.183, -0.183, 0, 0.505, 2.461, -94.46, -42.336, -3.528, -23.324, 23.43, 0.67874, 0.01901, 0.01123, -0.73398,
 15:04:59.954,d3:c7:8d:a5:a9:b5, 2015-01-01 00:05:40.780, -0.04, 0.009, 0.988, -0.183, -0.244, 0, 0.505, 2.461, -94.46, -42.336, -3.528, -23.324, 23.43, 0.67874, 0.01901, 0.01123, -0.73398,
 15:04:59.954,d3:c7:8d:a5:a9:b5, 2015-01-01 00:05:40.780, -0.04, 0.009, 0.988, -0.183, -0.244, 0, 0.505, 2.455, -94.46, -42.336, -3.528, -23.324, 23.43, 0.67874, 0.01901, 0.01123, -0.73398,
 15:04:59.954,d3:c7:8d:a5:a9:b5, 2015-01-01 00:05:40.780, -0.04, 0.008, 0.988, 0, 0, 0, 0.505, 2.455, -94.46, -42.336, -3.528, -23.324, 23.43, 0.67874, 0.01901, 0.01123, -0.73398,
 15:04:59.954,d3:c7:8d:a5:a9:b5, 2015-01-01 00:05:40.780, -0.042, 0.008, 0.988, 0, 0, 0, 0.505, 2.455, -94.46, -42.336, -3.528, -23.324, 23.43, 0.67874, 0.01901, 0.01123, -0.73398,
 15:04:59.983,d3:c7:8d:a5:a9:b5, 2015-01-01 00:05:40.780, -0.042, 0.008, 0.989, 0.122, 0.122, 0, 0.505, 2.455, -94.46, -42.336, -3.528, -23.324, 23.43, 0.67874, 0.01901, 0.01123, -0.73398,
 15:04:59.983,d3:c7:8d:a5:a9:b5, 2015-01-01 00:05:40.780, -0.044, 0.008, 0.989, 0.122, 0.122, 0, 0.505, 2.455, -94.46, -42.336, -3.528, -23.324, 23.43, 0.67874, 0.01901, 0.01123, -0.73398,
 15:04:59.983,d3:c7:8d:a5:a9:b5, 2015-01-01 00:05:40.780, -0.044, 0.01, 0.989, 0.183, 0.183, 0, 0.505, 2.455, -94.46, -42.336, -3.528, -23.324, 23.43, 0.67874, 0.01901, 0.01123, -0.73398,
 15:04:59.983,d3:c7:8d:a5:a9:b5, 2015-01-01 00:05:40.780, -0.043, 0.01, 0.989, 0.183, 0.183, 0, 0.511, 2.461, -94.46, -42.336, -3.528, -23.324, 23.43, 0.67874, 0.01901, 0.01123, -0.73398,
 15:05:00.013,d3:c7:8d:a5:a9:b5, 2015-01-01 00:05:40.780, -0.043, 0.01, 0.987, 0, -0.244, 0, 0.511, 2.455, -94.46, -42.336, -3.528, -23.324, 23.43, 0.67874, 0.01901, 0.01123, -0.73398,
 15:05:00.013,d3:c7:8d:a5:a9:b5, 2015-01-01 00:05:40.780, -0.039, 0.01, 0.987, 0, -0.244, 0, 0.511, 2.455, -94.46, -42.336, -3.528, -23.324, 23.43, 0.67874, 0.01901, 0.01123, -0.73398,
 15:05:00.013,d3:c7:8d:a5:a9:b5, 2015-01-01 00:05:40.780, -0.039, 0.009, 0.99, 0, -0.244, 0, 0.511, 2.45, -94.46, -42.336, -3.528, -23.324, 23.43, 0.67874, 0.01901, 0.01123, -0.73398,
 15:05:00.013,d3:c7:8d:a5:a9:b5, 2015-01-01 00:05:40.780, -0.04, 0.009, 0.99, 0, -0.244, 0, 0.511, 2.45, -94.46, -42.336, -3.528, -23.324, 23.43, 0.67874, 0.01901, 0.01123, -0.73398,
 15:05:00.074,d3:c7:8d:a5:a9:b5, 2015-01-01 00:05:40.780, -0.04, 0.007, 0.988, 0, 0.061, 0, 0.511, 2.45, -94.46, -42.336, -3.528, -23.324, 23.43, 0.67874, 0.01901, 0.01123, -0.73398,
 15:05:00.074,d3:c7:8d:a5:a9:b5, 2015-01-01 00:05:40.780, -0.042, 0.007, 0.988, 0, 0.061, 0, 0.511, 2.45, -94.46, -42.336, -3.528, -23.324, 23.43, 0.67874, 0.01901, 0.01123, -0.73398,
 15:05:00.074,d3:c7:8d:a5:a9:b5, 2015-01-01 00:05:40.780, -0.042, 0.009, 0.988, -0.061, 0.061, 0, 0.511, 2.45, -94.46, -42.336, -3.528, -23.324, 23.43, 0.67874, 0.01901, 0.01123, -0.73398,
 15:05:00.074,d3:c7:8d:a5:a9:b5, 2015-01-01 00:05:40.780, -0.043, 0.009, 0.988, -0.061, 0.061, 0, 0.511, 2.45, -94.46, -42.336, -3.528, -23.324, 23.43, 0.67874, 0.01901, 0.01123, -0.73398,
 15:05:00.103,d3:c7:8d:a5:a9:b5, 2015-01-01 00:05:40.780, -0.043, 0.008, 0.989, 0, -0.244, 0, 0.511, 2.45, -94.46, -42.336, -3.528, -23.324, 23.43, 0.67874, 0.01901, 0.01123, -0.73398,
 15:05:00.103,d3:c7:8d:a5:a9:b5, 2015-01-01 00:05:40.780, -0.039, 0.008, 0.989, 0, -0.244, 0, 0.511, 2.444, -94.46, -42.336, -3.528, -23.324, 23.43, 0.67874, 0.01901, 0.01123, -0.73398,
 15:05:00.103,d3:c7:8d:a5:a9:b5, 2015-01-01 00:05:40.780, -0.039, 0.009, 0.989, 0, -0.244, 0, 0.511, 2.444, -94.46, -42.336, -3.528, -23.324, 23.43, 0.67874, 0.01901, 0.01123, -0.73398,
 15:05:00.103,d3:c7:8d:a5:a9:b5, 2015-01-01 00:05:40.780, -0.039, 0.009, 0.989, 0, -0.244, 0, 0.511, 2.439, -94.46, -42.336, -3.528, -23.324, 23.43, 0.67874, 0.01901, 0.01123, -0.73398,
 15:05:00.132,d3:c7:8d:a5:a9:b5, 2015-01-01 00:05:40.780, -0.039, 0.008, 0.989, 0.122, 0.122, 0, 0.511, 2.439, -94.46, -42.336, -3.430, -23.324, 23.43, 0.67874, 0.01901, 0.01123, -0.73398,
 15:05:00.132,d3:c7:8d:a5:a9:b5, 2015-01-01 00:05:40.780, -0.041, 0.008, 0.989, 0.122, 0.122, 0, 0.511, 2.439, -94.46, -42.336, -3.430, -23.324, 23.43, 0.67874, 0.01901, 0.01123, -0.73398,
 15:05:00.132,d3:c7:8d:a5:a9:b5, 2015-01-01 00:05:40.780, -0.041, 0.008, 0.987, 0.305, 0.427, 0, 0.516, 2.444, -94.46, -42.336, -3.430, -23.324, 23.43, 0.67874, 0.01901, 0.01123, -0.73398,
 15:05:00.132,d3:c7:8d:a5:a9:b5, 2015-01-01 00:05:40.780, -0.042, 0.008, 0.987, 0.305, 0.427, 0, 0.516, 2.45, -94.46, -42.336, -3.430, -23.324, 23.43, 0.67874, 0.01901, 0.01123, -0.73398,
 15:05:00.193,d3:c7:8d:a5:a9:b5, 2015-01-01 00:05:40.780, -0.042, 0.01, 0.989, 0.305, 0.427, 0, 0.522, 2.455, -94.46, -42.336, -3.430, -23.324, 23.43, 0.67874, 0.01901, 0.01123, -0.73398,
 15:05:00.193,d3:c7:8d:a5:a9:b5, 2015-01-01 00:05:40.780, -0.043, 0.01, 0.989, 0.305, 0.427, 0, 0.522, 2.455, -94.46, -42.336, -3.430, -23.324, 23.43, 0.67874, 0.01901, 0.01123, -0.73398,
 15:05:00.193,d3:c7:8d:a5:a9:b5, 2015-01-01 00:05:40.780, -0.043, 0.01, 0.989, 0.183, 0.305, 0, 0.527, 2.461, -94.46, -42.336, -3.430, -23.324, 23.43, 0.67874, 0.01901, 0.01123, -0.73398,
 15:05:00.193,d3:c7:8d:a5:a9:b5, 2015-01-01 00:05:40.780, -0.043, 0.01, 0.989, 0.183, 0.305, 0, 0.527, 2.461, -94.46, -42.336, -3.430, -23.324, 23.43, 0.67874, 0.01901, 0.01123, -0.73398,
 15:05:00.222,d3:c7:8d:a5:a9:b5, 2015-01-01 00:05:40.780, -0.043, 0.01, 0.989, 0.122, 0, 0, 0.527, 2.461, -94.46, -42.336, -3.430, -23.324, 23.43, 0.67877, 0.01886, 0.0112, -0.73398,
 15:05:00.222,d3:c7:8d:a5:a9:b5, 2015-01-01 00:05:40.780, -0.041, 0.01, 0.989, 0.122, 0, 0, 0.527, 2.461, -94.46, -42.336, -3.430, -23.324, 23.43, 0.67877, 0.01886, 0.0112, -0.73398,
 15:05:00.222,d3:c7:8d:a5:a9:b5, 2015-01-01 00:05:40.780, -0.041, 0.009, 0.988, 0.061, 0, 0, 0.533, 2.461, -94.46, -42.336, -3.430, -23.324, 23.43, 0.67877, 0.01886, 0.0112, -0.73398,
 15:05:00.222,d3:c7:8d:a5:a9:b5, 2015-01-01 00:05:40.780, -0.042, 0.009, 0.988, 0.061, 0, 0, 0.533, 2.461, -94.46, -42.336, -3.430, -23.324, 23.43, 0.67877, 0.01886, 0.0112, -0.73398,
 15:05:00.253,d3:c7:8d:a5:a9:b5, 2015-01-01 00:05:40.780, -0.042, 0.008, 0.988, 0.122, 0, 0, 0.533, 2.461, -94.46, -42.336, -3.430, -23.324, 23.43, 0.67877, 0.01886, 0.0112, -0.73398,
