Time,Device name,Chip Time(),Acceleration X(g),Acceleration Y(g),Acceleration Z(g),Angular velocity X(°/s),Angular velocity Y(°/s),Angular velocity Z(°/s),Angle X(°),Angle Y(°),Angle Z(°),Magnetic field X(ʯt),Magnetic field Y(ʯt),Magnetic field Z(ʯt),Temperature(℃),Quaternions 0(),Quaternions 1(),Quaternions 2(),Quaternions 3()
 15:10:52.648,d3:c7:8d:a5:a9:b5, 2015-01-01 00:06:20.740, -0.003, -0.001, 0.999, -0.061, -0.061, 0, -0.137, 0.154, -103.771, -44.492, -10.878, -23.912,, 0.61719, 0.00031, 0.00174, -0.78674,
 15:10:52.651,d3:c7:8d:a5:a9:b5, 2015-01-01 00:06:20.740, 0.003, -0.001, 0.999, -0.061, -0.061, 0, -0.137, 0.154, -103.771, -44.492, -10.878, -23.912,, 0.61719, 0.00031, 0.00174, -0.78674,
 15:10:52.651,d3:c7:8d:a5:a9:b5, 2015-01-01 00:06:20.740, 0.003, -0.003, 0.999, 0, -0.122, 0, -0.137, 0.154, -103.771, -44.492, -10.878, -23.912,, 0.61719, 0.00031, 0.00174, -0.78674,
 15:10:52.651,d3:c7:8d:a5:a9:b5, 2015-01-01 00:06:20.740, 0.003, -0.003, 0.999, 0, -0.122, 0, -0.137, 0.154, -103.771, -44.492, -10.878, -23.912,, 0.61719, 0.00031, 0.00174, -0.78674,
 15:10:52.707,d3:c7:8d:a5:a9:b5, 2015-01-01 00:06:20.740, 0.003, -0.001, 1, 0.122, 0.183, 0, -0.137, 0.154, -103.771, -44.492, -10.878, -23.912,, 0.61719, 0.00031, 0.00174, -0.78674,
 15:10:52.707,d3:c7:8d:a5:a9:b5, 2015-01-01 00:06:20.740, -0.004, -0.001, 1, 0.122, 0.183, 0, -0.132, 0.159, -103.771, -44.492, -10.878, -23.912,, 0.61719, 0.00031, 0.00174, -0.78674,
 15:10:52.707,d3:c7:8d:a5:a9:b5, 2015-01-01 00:06:20.740, -0.004, 0, 0.999, 0.183, 0.244, 0, -0.132, 0.159, -103.771, -44.492, -10.878, -23.912,, 0.61719, 0.00031, 0.00174, -0.78674,
 15:10:52.707,d3:c7:8d:a5:a9:b5, 2015-01-01 00:06:20.740, -0.01, 0, 0.999, 0.183, 0.244, 0, -0.132, 0.159, -103.771, -44.492, -10.878, -23.912,, 0.61719, 0.00031, 0.00174, -0.78674,
 15:10:52.737,d3:c7:8d:a5:a9:b5, 2015-01-01 00:06:20.740, -0.01, 0, 0.999, -0.061, 0.061, 0, -0.132, 0.159, -103.771, -44.492, -10.878, -23.912,, 0.61719, 0.00031, 0.00174, -0.78674,
 15:10:52.737,d3:c7:8d:a5:a9:b5, 2015-01-01 00:06:20.740, -0.008, 0, 0.999, -0.061, 0.061, 0, -0.132, 0.165, -103.771, -44.492, -10.878, -23.912,, 0.61719, 0.00031, 0.00174, -0.78674,
 15:10:52.737,d3:c7:8d:a5:a9:b5, 2015-01-01 00:06:20.740, -0.008, -0.003, 0.997, -0.244, -0.122, 0, -0.132, 0.165, -103.771, -44.492, -10.878, -23.912,, 0.61719, 0.00031, 0.00174, -0.78674,
 15:10:52.737,d3:c7:8d:a5:a9:b5, 2015-01-01 00:06:20.740, -0.003, -0.003, 0.997, -0.244, -0.122, 0, -0.132, 0.159, -103.771, -44.492, -10.878, -23.912,, 0.61719, 0.00031, 0.00174, -0.78674,
 15:10:52.767,d3:c7:8d:a5:a9:b5, 2015-01-01 00:06:20.740, -0.003, -0.002, 1, 0, 0, 0, -0.132, 0.159, -103.771, -44.492, -10.878, -23.912,, 0.61719, 0.00031, 0.00174, -0.78674,
 15:10:52.767,d3:c7:8d:a5:a9:b5, 2015-01-01 00:06:20.740, -0.003, -0.002, 1, 0, 0, 0, -0.132, 0.159, -103.771, -44.492, -10.878, -23.912,, 0.61719, 0.00031, 0.00174, -0.78674,
 15:10:52.767,d3:c7:8d:a5:a9:b5, 2015-01-01 00:06:20.740, -0.003, -0.002, 0.999, -0.244, 0.122, 0, -0.137, 0.165, -103.771, -44.492, -10.878, -23.912,, 0.61719, 0.00031, 0.00174, -0.78674,
 15:10:52.767,d3:c7:8d:a5:a9:b5, 2015-01-01 00:06:20.740, -0.004, -0.002, 0.999, -0.244, 0.122, 0, -0.137, 0.165, -103.771, -44.492, -10.878, -23.912,, 0.61719, 0.00031, 0.00174, -0.78674,
 15:10:52.828,d3:c7:8d:a5:a9:b5, 2015-01-01 00:06:20.740, -0.004, -0.005, 0.997, 0, -0.061, 0, -0.137, 0.165, -103.771, -44.492, -10.780, -23.814,, 0.61719, 0.00031, 0.00174, -0.78674,
 15:10:52.828,d3:c7:8d:a5:a9:b5, 2015-01-01 00:06:20.740, -0.001, -0.005, 0.997, 0, -0.061, 0, -0.137, 0.165, -103.771, -44.492, -10.780, -23.814,, 0.61719, 0.00031, 0.00174, -0.78674,
 15:10:52.828,d3:c7:8d:a5:a9:b5, 2015-01-01 00:06:20.740, -0.001, -0.001, 1, 0.305, -0.244, 0, -0.137, 0.165, -103.771, -44.492, -10.780, -23.814,, 0.61719, 0.00031, 0.00174, -0.78674,
 15:10:52.828,d3:c7:8d:a5:a9:b5, 2015-01-01 00:06:20.740, 0.004, -0.001, 1, 0.305, -0.244, 0, -0.132, 0.159, -103.771, -44.492, -10.780, -23.814,, 0.61719, 0.00031, 0.00174, -0.78674,
 15:10:52.857,d3:c7:8d:a5:a9:b5, 2015-01-01 00:06:20.740, 0.004, 0.002, 1, -0.061, 0, 0, -0.132, 0.159, -103.771, -44.492, -10.780, -23.814,, 0.61719, 0.00037, 0.0018, -0.78677,
 15:10:52.857,d3:c7:8d:a5:a9:b5, 2015-01-01 00:06:20.740, -0.001, 0.002, 1, -0.061, 0, 0, -0.132, 0.159, -103.771, -44.492, -10.780, -23.814,, 0.61719, 0.00037, 0.0018, -0.78677,
 15:10:52.857,d3:c7:8d:a5:a9:b5, 2015-01-01 00:06:20.740, -0.001, -0.002, 1, -0.305, 0.305, 0, -0.137, 0.159, -103.771, -44.492, -10.780, -23.814,, 0.61719, 0.00037, 0.0018, -0.78677,
 15:10:52.857,d3:c7:8d:a5:a9:b5, 2015-01-01 00:06:20.740, -0.009, -0.002, 1, -0.305, 0.305, 0, -0.137, 0.165, -103.771, -44.492, -10.780, -23.814,, 0.61719, 0.00037, 0.0018, -0.78677,
 15:10:52.888,d3:c7:8d:a5:a9:b5, 2015-01-01 00:06:20.740, -0.009, -0.003, 1, 0.122, 0.305, 0, -0.137, 0.165, -103.771, -44.492, -10.780, -23.814,, 0.61719, 0.00037, 0.0018, -0.78677,
 15:10:52.888,d3:c7:8d:a5:a9:b5, 2015-01-01 00:06:20.740, -0.01, -0.003, 1, 0.122, 0.305, 0, -0.137, 0.17, -103.771, -44.492, -10.780, -23.814,, 0.61719, 0.00037, 0.0018, -0.78677,
 15:10:52.888,d3:c7:8d:a5:a9:b5, 2015-01-01 00:06:20.740, -0.01, -0.002, 0.997, 0.244, 0, 0, -0.132, 0.17, -103.771, -44.492, -10.780, -23.814,, 0.61719, 0.00037, 0.0018, -0.78677,
 15:10:52.888,d3:c7:8d:a5:a9:b5, 2015-01-01 00:06:20.740, -0.007, -0.002, 0.997, 0.244, 0, 0, -0.132, 0.17, -103.771, -44.492, -10.780, -23.814,, 0.61719, 0.00037, 0.0018, -0.78677,
 15:10:52.947,d3:c7:8d:a5:a9:b5, 2015-01-01 00:06:21.065, -0.007, -0.001, 0.999, 0.122, 0, 0, -0.126, 0.17, -103.771, -44.492, -10.780, -23.814,, 0.61719, 0.00037, 0.0018, -0.78677,
 15:10:52.947,d3:c7:8d:a5:a9:b5, 2015-01-01 00:06:21.065, -0.007, -0.001, 0.999, 0.122, 0, 0, -0.126, 0.17, -103.771, -44.492, -10.780, -23.814,, 0.61719, 0.00037, 0.0018, -0.78677,
 15:10:52.947,d3:c7:8d:a5:a9:b5, 2015-01-01 00:06:21.065, -0.007, 0, 0.998, 0.061, -0.122, 0, -0.126, 0.17, -103.771, -44.492, -10.780, -23.814,, 0.61719, 0.00037, 0.0018, -0.78677,
 15:10:52.947,d3:c7:8d:a5:a9:b5, 2015-01-01 00:06:21.065, -0.002, 0, 0.998, 0.061, -0.122, 0, -0.126, 0.17, -103.771, -44.492, -10.780, -23.814,, 0.61719, 0.00037, 0.0018, -0.78677,
 15:10:52.977,d3:c7:8d:a5:a9:b5, 2015-01-01 00:06:21.065, -0.002, 0.002, 1.001, -0.366, -0.244, 0, -0.126, 0.17, -103.771, -44.492, -10.780, -23.814,, 0.61719, 0.00037, 0.0018, -0.78677,
 15:10:52.977,d3:c7:8d:a5:a9:b5, 2015-01-01 00:06:21.065, 0.001, 0.002, 1.001, -0.366, -0.244, 0, -0.132, 0.17, -103.771, -44.492, -10.780, -23.814,, 0.61719, 0.00037, 0.0018, -0.78677,
 15:10:52.977,d3:c7:8d:a5:a9:b5, 2015-01-01 00:06:21.065, 0.001, -0.001, 1, -0.61, -0.183, 0, -0.137, 0.165, -103.771, -44.492, -10.780, -23.814,, 0.61719, 0.00037, 0.0018, -0.78677,
 15:10:52.977,d3:c7:8d:a5:a9:b5, 2015-01-01 00:06:21.065, 0.001, -0.001, 1, -0.61, -0.183, 0, -0.143, 0.165, -103.771, -44.492, -10.780, -23.814,, 0.61719, 0.00037, 0.0018, -0.78677,
 15:10:53.007,d3:c7:8d:a5:a9:b5, 2015-01-01 00:06:21.065, 0.001, -0.006, 1, -0.366, 0, 0, -0.148, 0.165, -103.771, -44.492, -10.780, -23.814,, 0.61719, 0.00037, 0.0018, -0.78677,
 15:10:53.007,d3:c7:8d:a5:a9:b5, 2015-01-01 00:06:21.065, -0.001, -0.006, 1, -0.366, 0, 0, -0.148, 0.165, -103.771, -44.492, -10.780, -23.814,, 0.61719, 0.00037, 0.0018, -0.78677,
 15:10:53.007,d3:c7:8d:a5:a9:b5, 2015-01-01 00:06:21.065, -0.001, -0.006, 0.999, 0.305, 0.061, 0, -0.148, 0.165, -103.771, -44.492, -10.780, -23.814,, 0.61719, 0.00037, 0.0018, -0.78677,
 15:10:53.007,d3:c7:8d:a5:a9:b5, 2015-01-01 00:06:21.065, -0.003, -0.006, 0.999, 0.305, 0.061, 0, -0.143, 0.165, -103.771, -44.492, -10.780, -23.814,, 0.61719, 0.00037, 0.0018, -0.78677,
 15:10:53.066,d3:c7:8d:a5:a9:b5, 2015-01-01 00:06:21.065, -0.003, -0.001, 1, 0.671, 0.122, 0, -0.137, 0.17, -103.771, -44.492, -10.780, -23.814,, 0.61719, 0.00037, 0.0018, -0.78677,
 15:10:53.066,d3:c7:8d:a5:a9:b5, 2015-01-01 00:06:21.065, -0.008, -0.001, 1, 0.671, 0.122, 0, -0.132, 0.17, -103.771, -44.492, -10.780, -23.814,, 0.61719, 0.00037, 0.0018, -0.78677,
 15:10:53.066,d3:c7:8d:a5:a9:b5, 2015-01-01 00:06:21.065, -0.008, 0.001, 0.998, 0.122, 0.122, 0, -0.126, 0.17, -103.771, -44.492, -10.780, -23.814,, 0.61719, 0.00037, 0.0018, -0.78677,
 15:10:53.066,d3:c7:8d:a5:a9:b5, 2015-01-01 00:06:21.065, -0.01, 0.001, 0.998, 0.122, 0.122, 0, -0.126, 0.17, -103.771, -44.492, -10.780, -23.814,, 0.61719, 0.00037, 0.0018, -0.78677,
 15:10:53.098,d3:c7:8d:a5:a9:b5, 2015-01-01 00:06:21.065, -0.01, 0, 0.998, -0.061, 0, 0, -0.126, 0.17, -103.771, -44.492, -10.780, -23.814,, 0.61719, 0.00037, 0.0018, -0.78677,
 15:10:53.098,d3:c7:8d:a5:a9:b5, 2015-01-01 00:06:21.065, -0.006, 0, 0.998, -0.061, 0, 0, -0.126, 0.17, -103.771, -44.492, -10.780, -23.814,, 0.61719, 0.00037, 0.0018, -0.78677,
 15:10:53.098,d3:c7:8d:a5:a9:b5, 2015-01-01 00:06:21.065, -0.006, -0.001, 0.999, -0.305, -0.122, 0, -0.132, 0.17, -103.771, -44.492, -10.780, -23.814,, 0.61719, 0.00037, 0.0018, -0.78677,
 15:10:53.098,d3:c7:8d:a5:a9:b5, 2015-01-01 00:06:21.065, -0.002, -0.001, 0.999, -0.305, -0.122, 0, -0.132, 0.17, -103.771, -44.492, -10.780, -23.814,, 0.61719, 0.00037, 0.0018, -0.78677,
 15:10:53.128,d3:c7:8d:a5:a9:b5, 2015-01-01 00:06:21.065, -0.002, -0.004, 0.998, -0.122, -0.122, 0, -0.137, 0.17, -103.771, -44.394, -10.780, -24.010,, 0.61719, 0.00037, 0.0018, -0.78677,
 15:10:53.128,d3:c7:8d:a5:a9:b5, 2015-01-01 00:06:21.065, -0.001, -0.004, 0.998, -0.122, -0.122, 0, -0.137, 0.17, -103.771, -44.394, -10.780, -24.010,, 0.61719, 0.00037, 0.0018, -0.78677,
 15:10:53.128,d3:c7:8d:a5:a9:b5, 2015-01-01 00:06:21.065, -0.001, -0.001, 1, 0.061, 0, 0, -0.137, 0.17, -103.771, -44.394, -10.780, -24.010,, 0.61719, 0.00037, 0.0018, -0.78677,
 15:10:53.128,d3:c7:8d:a5:a9:b5, 2015-01-01 00:06:21.065, -0.003, -0.001, 1, 0.061, 0, 0, -0.132, 0.17, -103.771, -44.394, -10.780, -24.010,, 0.61719, 0.00037, 0.0018, -0.78677,
 15:10:53.187,d3:c7:8d:a5:a9:b5, 2015-01-01 00:06:21.065, -0.003, -0.001, 1, 0.061, -0.183, 0, -0.132, 0.17, -103.771, -44.394, -10.780, -24.010,, 0.61719, 0.00037, 0.0018, -0.78677,
 15:10:53.187,d3:c7:8d:a5:a9:b5, 2015-01-01 00:06:21.065, 0, -0.001, 1, 0.061, -0.183, 0, -0.132, 0.17, -103.771, -44.394, -10.780, -24.010,, 0.61719, 0.00037, 0.0018, -0.78677,
 15:10:53.187,d3:c7:8d:a5:a9:b5, 2015-01-01 00:06:21.065, 0, -0.001, 0.999, 0, -0.244, 0, -0.132, 0.165, -103.771, -44.394, -10.780, -24.010,, 0.61719, 0.00037, 0.0018, -0.78677,
 15:10:53.187,d3:c7:8d:a5:a9:b5, 2015-01-01 00:06:21.065, 0.003, -0.001, 0.999, 0, -0.244, 0, -0.132, 0.165, -103.771, -44.394, -10.780, -24.010,, 0.61719, 0.00037, 0.0018, -0.78677,
 15:10:53.218,d3:c7:8d:a5:a9:b5, 2015-01-01 00:06:21.065, 0.003, -0.003, 1, 0.061, 0, 0, -0.132, 0.165, -103.771, -44.394, -10.780, -24.010,, 0.61716, 0.00043, 0.00183, -0.78677,
 15:10:53.218,d3:c7:8d:a5:a9:b5, 2015-01-01 00:06:21.065, -0.001, -0.003, 1, 0.061, 0, 0, -0.132, 0.165, -103.771, -44.394, -10.780, -24.010,, 0.61716, 0.00043, 0.00183, -0.78677,
 15:10:53.218,d3:c7:8d:a5:a9:b5, 2015-01-01 00:06:21.065, -0.001, 0, 1, 0.122, 0.366, 0, -0.132, 0.165, -103.771, -44.394, -10.780, -24.010,, 0.61716, 0.00043, 0.00183, -0.78677,
 15:10:53.218,d3:c7:8d:a5:a9:b5, 2015-01-01 00:06:21.065, -0.013, 0, 1, 0.122, 0.366, 0, -0.126, 0.17, -103.771, -44.394, -10.780, -24.010,, 0.61716, 0.00043, 0.00183, -0.78677,
 15:10:53.247,d3:c7:8d:a5:a9:b5, 2015-01-01 00:06:21.065, -0.013, -0.001, 0.997, 0, 0.183, 0, -0.126, 0.17, -103.771, -44.394, -10.780, -24.010,, 0.61716, 0.00043, 0.00183, -0.78677,
 15:10:53.247,d3:c7:8d:a5:a9:b5, 2015-01-01 00:06:21.065, -0.011, -0.001, 0.997, 0, 0.183, 0, -0.126, 0.176, -103.771, -44.394, -10.780, -24.010,, 0.61716, 0.00043, 0.00183, -0.78677,
 15:10:53.247,d3:c7:8d:a5:a9:b5, 2015-01-01 00:06:21.065, -0.011, 0, 0.999, -0.183, -0.244, 0, -0.132, 0.17, -103.771, -44.394, -10.780, -24.010,, 0.61716, 0.00043, 0.00183, -0.78677,
 15:10:53.247,d3:c7:8d:a5:a9:b5, 2015-01-01 00:06:21.065, -0.002, 0, 0.999, -0.183, -0.244, 0, -0.132, 0.17, -103.771, -44.394, -10.780, -24.010,, 0.61716, 0.00043, 0.00183, -0.78677,
 15:10:53.307,d3:c7:8d:a5:a9:b5, 2015-01-01 00:06:21.425, -0.002, -0.003, 0.999, -0.305, -0.427, 0, -0.132, 0.165, -103.771, -44.394, -10.780, -24.010,, 0.61716, 0.00043, 0.00183, -0.78677,
 15:10:53.307,d3:c7:8d:a5:a9:b5, 2015-01-01 00:06:21.425, 0.004, -0.003, 0.999, -0.305, -0.427, 0, -0.137, 0.165, -103.771, -44.394, -10.780, -24.010,, 0.61716, 0.00043, 0.00183, -0.78677,
 15:10:53.307,d3:c7:8d:a5:a9:b5, 2015-01-01 00:06:21.425, 0.004, -0.003, 1, 0, 0.061, 0, -0.137, 0.165, -103.771, -44.394, -10.780, -24.010,, 0.61716, 0.00043, 0.00183, -0.78677,
 15:10:53.307,d3:c7:8d:a5:a9:b5, 2015-01-01 00:06:21.425, 0, -0.003, 1, 0, 0.061, 0, -0.137, 0.165, -103.771, -44.394, -10.780, -24.010,, 0.61716, 0.00043, 0.00183, -0.78677,
 15:10:53.339,d3:c7:8d:a5:a9:b5, 2015-01-01 00:06:21.425, -0.009, -0.002, 0.999, 0.183, 0.427, 0, -0.132, 0.17, -103.771, -44.394, -10.780, -24.010,, 0.61716, 0.00043, 0.00183, -0.78677,
 15:10:53.339,d3:c7:8d:a5:a9:b5, 2015-01-01 00:06:21.425, -0.009, -0.001, 0.999, 0.305, 0.183, 0, -0.132, 0.17, -103.771, -44.394, -10.780, -24.010,, 0.61716, 0.00043, 0.00183, -0.78677,
 15:10:53.339,d3:c7:8d:a5:a9:b5, 2015-01-01 00:06:21.425, -0.006, -0.001, 0.999, 0.305, 0.183, 0, -0.126, 0.176, -103.771, -44.394, -10.780, -24.010,, 0.61716, 0.00043, 0.00183, -0.78677,
 15:10:53.339,d3:c7:8d:a5:a9:b5, 2015-01-01 00:06:21.425, -0.006, 0, 1, 0.061, -0.244, 0, -0.126, 0.176, -103.771, -44.394, -10.780, -24.010,, 0.61716, 0.00043, 0.00183, -0.78677,
 15:10:53.368,d3:c7:8d:a5:a9:b5, 2015-01-01 00:06:21.425, 0, 0, 1, 0.061, -0.244, 0, -0.126, 0.17, -103.771, -44.394, -10.780, -24.010,, 0.61716, 0.00043, 0.00183, -0.78677,
 15:10:53.368,d3:c7:8d:a5:a9:b5, 2015-01-01 00:06:21.425, 0, -0.001, 0.998, -0.244, -0.183, 0, -0.126, 0.17, -103.771, -44.394, -10.780, -24.010,, 0.61716, 0.00043, 0.00183, -0.78677,
 15:10:53.368,d3:c7:8d:a5:a9:b5, 2015-01-01 00:06:21.425, -0.002, -0.001, 0.998, -0.244, -0.183, 0, -0.126, 0.17, -103.771, -44.394, -10.780, -24.010,, 0.61716, 0.00043, 0.00183, -0.78677,
 15:10:53.368,d3:c7:8d:a5:a9:b5, 2015-01-01 00:06:21.425, -0.002, -0.004, 1, -0.061, 0.122, 0, -0.132, 0.17, -103.771, -44.394, -10.780, -24.010,, 0.61716, 0.00043, 0.00183, -0.78677,
 15:10:53.428,d3:c7:8d:a5:a9:b5, 2015-01-01 00:06:21.425, -0.004, -0.004, 1, -0.061, 0.122, 0, -0.132, 0.17, -103.771, -44.394, -10.780, -24.010,, 0.61716, 0.00043, 0.00183, -0.78677,
 15:10:53.428,d3:c7:8d:a5:a9:b5, 2015-01-01 00:06:21.425, -0.004, -0.001, 0.999, 0.366, 0.305, 0, -0.132, 0.17, -103.771, -44.394, -10.780, -24.010,, 0.61716, 0.00043, 0.00183, -0.78677,
 15:10:53.428,d3:c7:8d:a5:a9:b5, 2015-01-01 00:06:21.425, -0.008, -0.001, 0.999, 0.366, 0.305, 0, -0.126, 0.176, -103.777, -44.394, -10.780, -24.010,, 0.61716, 0.00043, 0.00183, -0.78677,
 15:10:53.428,d3:c7:8d:a5:a9:b5, 2015-01-01 00:06:21.425, -0.008, -0.001, 0.999, 0, 0.183, 0, -0.121, 0.176, -103.777, -44.394, -10.780, -24.010,, 0.61716, 0.00043, 0.00183, -0.78677,
 15:10:53.458,d3:c7:8d:a5:a9:b5, 2015-01-01 00:06:21.425, -0.006, -0.001, 0.999, 0, 0.183, 0, -0.121, 0.181, -103.777, -44.394, -10.780, -24.010,, 0.61716, 0.00043, 0.00183, -0.78677,
 15:10:53.458,d3:c7:8d:a5:a9:b5, 2015-01-01 00:06:21.425, -0.006, -0.002, 0.998, 0.061, -0.183, 0, -0.121, 0.181, -103.777, -44.394, -10.780, -24.010,, 0.61716, 0.00043, 0.00183, -0.78677,
 15:10:53.458,d3:c7:8d:a5:a9:b5, 2015-01-01 00:06:21.425, -0.001, -0.002, 0.998, 0.061, -0.183, 0, -0.121, 0.181, -103.777, -44.394, -10.780, -24.010,, 0.61716, 0.00043, 0.00183, -0.78677,
 15:10:53.458,d3:c7:8d:a5:a9:b5, 2015-01-01 00:06:21.425, -0.001, 0, 1, -0.061, -0.305, 0, -0.121, 0.176, -103.777, -44.394, -10.780, -24.010,, 0.61716, 0.00043, 0.00183, -0.78677,
 15:10:53.487,d3:c7:8d:a5:a9:b5, 2015-01-01 00:06:21.425, 0.004, 0, 1, -0.061, -0.305, 0, -0.121, 0.176, -103.777, -44.394, -10.976, -23.912,, 0.61716, 0.00043, 0.00183, -0.78677,
 15:10:53.487,d3:c7:8d:a5:a9:b5, 2015-01-01 00:06:21.425, 0.004, -0.001, 0.999, -0.122, -0.061, 0, -0.121, 0.17, -103.777, -44.394, -10.976, -23.912,, 0.61716, 0.00043, 0.00183, -0.78677,
 15:10:53.487,d3:c7:8d:a5:a9:b5, 2015-01-01 00:06:21.425, -0.002, -0.001, 0.999, -0.122, -0.061, 0, -0.126, 0.17, -103.777, -44.394, -10.976, -23.912,, 0.61716, 0.00043, 0.00183, -0.78677,
 15:10:53.487,d3:c7:8d:a5:a9:b5, 2015-01-01 00:06:21.425, -0.002, -0.003, 1, 0, 0.183, 0, -0.126, 0.17, -103.777, -44.394, -10.976, -23.912,, 0.61716, 0.00043, 0.00183, -0.78677,
 15:10:53.547,d3:c7:8d:a5:a9:b5, 2015-01-01 00:06:21.425, -0.004, -0.003, 1, 0, 0.183, 0, -0.126, 0.176, -103.777, -44.394, -10.976, -23.912,, 0.61716, 0.00043, 0.00183, -0.78677,
 15:10:53.547,d3:c7:8d:a5:a9:b5, 2015-01-01 00:06:21.425, -0.004, -0.002, 0.998, 0, 0.061, 0, -0.126, 0.176, -103.777, -44.394, -10.976, -23.912,, 0.61716, 0.00043, 0.00183, -0.78677,
 15:10:53.547,d3:c7:8d:a5:a9:b5, 2015-01-01 00:06:21.425, -0.005, -0.002, 0.998, 0, 0.061, 0, -0.126, 0.176, -103.777, -44.394, -10.976, -23.912,, 0.61716, 0.00043, 0.00183, -0.78677,
 15:10:53.547,d3:c7:8d:a5:a9:b5, 2015-01-01 00:06:21.425, -0.005, -0.002, 1, -0.061, 0, 0, -0.126, 0.176, -103.777, -44.394, -10.976, -23.912,, 0.61716, 0.00043, 0.00183, -0.78677,
 15:10:53.607,d3:c7:8d:a5:a9:b5, 2015-01-01 00:06:21.425, -0.001, -0.002, 1, -0.061, 0, 0, -0.126, 0.176, -103.777, -44.394, -10.976, -23.912,, 0.61716, 0.00052, 0.00183, -0.78677,
 15:10:53.607,d3:c7:8d:a5:a9:b5, 2015-01-01 00:06:21.425, -0.001, -0.001, 0.998, 0, 0, 0, -0.126, 0.176, -103.777, -44.394, -10.976, -23.912,, 0.61716, 0.00052, 0.00183, -0.78677,
 15:10:53.607,d3:c7:8d:a5:a9:b5, 2015-01-01 00:06:21.425, -0.005, -0.001, 0.998, 0, 0, 0, -0.126, 0.176, -103.777, -44.394, -10.976, -23.912,, 0.61716, 0.00052, 0.00183, -0.78677,
 15:10:53.607,d3:c7:8d:a5:a9:b5, 2015-01-01 00:06:21.425, -0.005, -0.002, 0.999, 0, 0.122, 0, -0.126, 0.176, -103.777, -44.394, -10.976, -23.912,, 0.61716, 0.00052, 0.00183, -0.78677,
 15:10:53.607,d3:c7:8d:a5:a9:b5, 2015-01-01 00:06:21.425, -0.006, -0.002, 0.999, 0, 0.122, 0, -0.126, 0.176, -103.777, -44.394, -10.976, -23.912,, 0.61716, 0.00052, 0.00183, -0.78677,
 15:10:53.608,d3:c7:8d:a5:a9:b5, 2015-01-01 00:06:21.425, -0.006, 0, 0.998, 0.122, -0.061, 0, -0.126, 0.176, -103.777, -44.394, -10.976, -23.912,, 0.61716, 0.00052, 0.00183, -0.78677,
 15:10:53.608,d3:c7:8d:a5:a9:b5, 2015-01-01 00:06:21.425, -0.006, 0, 0.998, 0.122, -0.061, 0, -0.121, 0.176, -103.777, -44.394, -10.976, -23.912,, 0.61716, 0.00052, 0.00183, -0.78677,
 15:10:53.608,d3:c7:8d:a5:a9:b5, 2015-01-01 00:06:21.425, -0.006, 0, 0.999, -0.244, 0, 0, -0.121, 0.176, -103.777, -44.394, -10.976, -23.912,, 0.61716, 0.00052, 0.00183, -0.78677,
 15:10:53.668,d3:c7:8d:a5:a9:b5, 2015-01-01 00:06:21.425, -0.004, 0, 0.999, -0.244, 0, 0, -0.126, 0.176, -103.777, -44.394, -10.976, -23.912,, 0.61716, 0.00052, 0.00183, -0.78677,
 15:10:53.668,d3:c7:8d:a5:a9:b5, 2015-01-01 00:06:21.425, -0.004, -0.004, 0.998, 0, -0.183, 0, -0.126, 0.176, -103.777, -44.394, -10.976, -23.912,, 0.61716, 0.00052, 0.00183, -0.78677,
 15:10:53.668,d3:c7:8d:a5:a9:b5, 2015-01-01 00:06:21.425, -0.001, -0.004, 0.998, 0, -0.183, 0, -0.126, 0.176, -103.777, -44.394, -10.976, -23.912,, 0.61716, 0.00052, 0.00183, -0.78677,
 15:10:53.668,d3:c7:8d:a5:a9:b5, 2015-01-01 00:06:21.425, -0.001, 0, 1, 0, 0, 0, -0.126, 0.176, -103.777, -44.394, -10.976, -23.912,, 0.61716, 0.00052, 0.00183, -0.78677,
 15:10:53.696,d3:c7:8d:a5:a9:b5, 2015-01-01 00:06:21.810, -0.003, 0, 1, 0, 0, 0, -0.126, 0.176, -103.777, -44.394, -10.976, -23.912,, 0.61716, 0.00052, 0.00183, -0.78677,
 15:10:53.696,d3:c7:8d:a5:a9:b5, 2015-01-01 00:06:21.810, -0.003, -0.003, 0.999, -0.183, 0.061, 0, -0.126, 0.176, -103.777, -44.394, -10.976, -23.912,, 0.61716, 0.00052, 0.00183, -0.78677,
 15:10:53.696,d3:c7:8d:a5:a9:b5, 2015-01-01 00:06:21.810, -0.005, -0.003, 0.999, -0.183, 0.061, 0, -0.126, 0.176, -103.777, -44.394, -10.976, -23.912,, 0.61716, 0.00052, 0.00183, -0.78677,
 15:10:53.696,d3:c7:8d:a5:a9:b5, 2015-01-01 00:06:21.810, -0.005, -0.003, 0.999, 0.427, -0.061, 0, -0.126, 0.176, -103.777, -44.394, -10.976, -23.912,, 0.61716, 0.00052, 0.00183, -0.78677,
 15:10:53.727,d3:c7:8d:a5:a9:b5, 2015-01-01 00:06:21.810, -0.001, -0.003, 0.999, 0.427, -0.061, 0, -0.121, 0.176, -103.777, -44.394, -10.976, -23.912,, 0.61716, 0.00052, 0.00183, -0.78677,
 15:10:53.727,d3:c7:8d:a5:a9:b5, 2015-01-01 00:06:21.810, -0.001, 0.002, 0.998, 0.122, -0.183, 0, -0.121, 0.176, -103.777, -44.394, -10.976, -23.912,, 0.61716, 0.00052, 0.00183, -0.78677,
 15:10:53.727,d3:c7:8d:a5:a9:b5, 2015-01-01 00:06:21.810, -0.001, 0.002, 0.998, 0.122, -0.183, 0, -0.121, 0.176, -103.777, -44.394, -10.976, -23.912,, 0.61716, 0.00052, 0.00183, -0.78677,
 15:10:53.727,d3:c7:8d:a5:a9:b5, 2015-01-01 00:06:21.810, -0.001, -0.002, 1, -0.183, -0.061, 0, -0.121, 0.176, -103.777, -44.394, -10.976, -23.912,, 0.61716, 0.00052, 0.00183, -0.78677,
 15:10:53.786,d3:c7:8d:a5:a9:b5, 2015-01-01 00:06:21.810, -0.001, -0.002, 1, -0.183, -0.061, 0, -0.121, 0.176, -103.777, -44.394, -10.976, -23.912,, 0.61716, 0.00052, 0.00183, -0.78677,
 15:10:53.786,d3:c7:8d:a5:a9:b5, 2015-01-01 00:06:21.810, -0.001, -0.001, 1, 0, 0.061, 0, -0.121, 0.176, -103.777, -44.394, -10.976, -23.912,, 0.61716, 0.00052, 0.00183, -0.78677,
 15:10:53.786,d3:c7:8d:a5:a9:b5, 2015-01-01 00:06:21.810, -0.007, -0.001, 1, 0, 0.061, 0, -0.121, 0.176, -103.777, -44.394, -10.976, -23.912,, 0.61716, 0.00052, 0.00183, -0.78677,
 15:10:53.786,d3:c7:8d:a5:a9:b5, 2015-01-01 00:06:21.810, -0.007, -0.003, 1, 0, 0.183, 0, -0.121, 0.176, -103.777, -44.394, -10.976, -23.912,, 0.61716, 0.00052, 0.00183, -0.78677,
 15:10:53.817,d3:c7:8d:a5:a9:b5, 2015-01-01 00:06:21.810, -0.007, -0.003, 1, 0, 0.183, 0, -0.121, 0.181, -103.777, -44.394, -10.976, -23.912,, 0.61716, 0.00052, 0.00183, -0.78677,
 15:10:53.817,d3:c7:8d:a5:a9:b5, 2015-01-01 00:06:21.810, -0.007, -0.003, 0.997, 0.427, -0.061, 0, -0.115, 0.176, -103.777, -44.394, -10.976, -23.912,, 0.61716, 0.00052, 0.00183, -0.78677,
 15:10:53.817,d3:c7:8d:a5:a9:b5, 2015-01-01 00:06:21.810, 0, -0.003, 0.997, 0.427, -0.061, 0, -0.11, 0.176, -103.777, -44.394, -10.976, -23.912,, 0.61716, 0.00052, 0.00183, -0.78677,
 15:10:53.817,d3:c7:8d:a5:a9:b5, 2015-01-01 00:06:21.810, 0, 0, 0.999, 0.305, -0.061, 0, -0.11, 0.176, -103.777, -44.394, -10.976, -23.912,, 0.61716, 0.00052, 0.00183, -0.78677,
 15:10:53.847,d3:c7:8d:a5:a9:b5, 2015-01-01 00:06:21.810, -0.002, 0, 0.999, 0.305, -0.061, 0, -0.104, 0.176, -103.777, -44.394, -10.976, -23.912,, 0.61716, 0.00052, 0.00183, -0.78677,
 15:10:53.847,d3:c7:8d:a5:a9:b5, 2015-01-01 00:06:21.810, -0.002, 0, 0.999, 0, 0.061, 0, -0.104, 0.176, -103.777, -44.394, -10.976, -23.912,, 0.61716, 0.00052, 0.00183, -0.78677,
 15:10:53.847,d3:c7:8d:a5:a9:b5, 2015-01-01 00:06:21.810, -0.005, 0, 0.999, 0, 0.061, 0, -0.104, 0.181, -103.777, -44.394, -10.976, -23.912,, 0.61716, 0.00052, 0.00183, -0.78677,
 15:10:53.847,d3:c7:8d:a5:a9:b5, 2015-01-01 00:06:21.810, -0.005, 0, 0.999, -0.366, 0, 0, -0.11, 0.181, -103.777, -44.394, -10.976, -23.912,, 0.61716, 0.00052, 0.00183, -0.78677,
 15:10:53.907,d3:c7:8d:a5:a9:b5, 2015-01-01 00:06:21.810, -0.004, 0, 0.999, -0.366, 0, 0, -0.11, 0.181, -103.777, -44.394, -10.976, -23.912,, 0.61716, 0.00052, 0.00183, -0.78677,
 15:10:53.907,d3:c7:8d:a5:a9:b5, 2015-01-01 00:06:21.810, -0.004, -0.003, 1, -0.366, -0.244, 0, -0.115, 0.176, -103.777, -44.394, -10.976, -23.912,, 0.61716, 0.00052, 0.00183, -0.78677,
 15:10:53.909,d3:c7:8d:a5:a9:b5, 2015-01-01 00:06:21.810, 0, -0.003, 1, -0.366, -0.244, 0, -0.121, 0.176, -103.777, -44.394, -10.976, -23.912,, 0.61716, 0.00052, 0.00183, -0.78677,
 15:10:53.909,d3:c7:8d:a5:a9:b5, 2015-01-01 00:06:21.810, 0, -0.003, 0.999, 0, -0.061, 0, -0.115, 0.176, -103.777, -44.394, -10.976, -23.912,, 0.61716, 0.00052, 0.00183, -0.78677,
 15:10:53.937,d3:c7:8d:a5:a9:b5, 2015-01-01 00:06:21.810, 0, -0.003, 0.999, 0, -0.061, 0, -0.115, 0.176, -103.777, -44.394, -10.878, -23.912,, 0.61716, 0.00052, 0.00183, -0.78677,
 15:10:53.937,d3:c7:8d:a5:a9:b5, 2015-01-01 00:06:21.810, 0, -0.004, 0.999, 0.122, 0.183, 0, -0.115, 0.176, -103.777, -44.394, -10.878, -23.912,, 0.61716, 0.00052, 0.00183, -0.78677,
 15:10:53.937,d3:c7:8d:a5:a9:b5, 2015-01-01 00:06:21.810, -0.002, -0.004, 0.999, 0.122, 0.183, 0, -0.115, 0.176, -103.777, -44.394, -10.878, -23.912,, 0.61716, 0.00052, 0.00183, -0.78677,
 15:10:53.937,d3:c7:8d:a5:a9:b5, 2015-01-01 00:06:21.810, -0.002, 0, 0.998, 0.549, 0.366, 0, -0.11, 0.181, -103.777, -44.394, -10.878, -23.912,, 0.61716, 0.00052, 0.00183, -0.78677,
 15:10:53.997,d3:c7:8d:a5:a9:b5, 2015-01-01 00:06:21.810, -0.01, 0, 0.998, 0.549, 0.366, 0, -0.104, 0.181, -103.777, -44.394, -10.878, -23.912,, 0.61716, 0.00052, 0.00183, -0.78677,
 15:10:53.997,d3:c7:8d:a5:a9:b5, 2015-01-01 00:06:21.810, -0.01, 0.001, 0.999, -0.244, 0.427, 0, -0.104, 0.187, -103.777, -44.394, -10.878, -23.912,, 0.61716, 0.00052, 0.00183, -0.78677,
 15:10:53.997,d3:c7:8d:a5:a9:b5, 2015-01-01 00:06:21.810, -0.012, 0.001, 0.999, -0.244, 0.427, 0, -0.11, 0.192, -103.777, -44.394, -10.878, -23.912,, 0.61716, 0.00052, 0.00183, -0.78677,
 15:10:53.997,d3:c7:8d:a5:a9:b5, 2015-01-01 00:06:21.810, -0.012, -0.002, 0.998, -0.183, -0.183, 0, -0.11, 0.192, -103.777, -44.394, -10.878, -23.912,, 0.61716, 0.00052, 0.00183, -0.78677,
 15:10:54.027,d3:c7:8d:a5:a9:b5, 2015-01-01 00:06:21.810, -0.004, -0.002, 0.998, -0.183, -0.183, 0, -0.11, 0.192, -103.777, -44.394, -10.878, -23.912,, 0.61716, 0.00073, 0.0018, -0.78677,
 15:10:54.027,d3:c7:8d:a5:a9:b5, 2015-01-01 00:06:21.810, -0.004, -0.001, 0.999, -0.183, -0.488, 0, -0.115, 0.187, -103.777, -44.394, -10.878, -23.912,, 0.61716, 0.00073, 0.0018, -0.78677,
 15:10:54.027,d3:c7:8d:a5:a9:b5, 2015-01-01 00:06:21.810, 0.003, -0.001, 0.999, -0.183, -0.488, 0, -0.115, 0.181, -103.777, -44.394, -10.878, -23.912,, 0.61716, 0.00073, 0.0018, -0.78677,
 15:10:54.027,d3:c7:8d:a5:a9:b5, 2015-01-01 00:06:21.810, 0.003, -0.004, 1, -0.122, -0.122, 0, -0.115, 0.181, -103.777, -44.394, -10.878, -23.912,, 0.61716, 0.00073, 0.0018, -0.78677,
 15:10:54.059,d3:c7:8d:a5:a9:b5, 2015-01-01 00:06:21.810, 0.003, -0.004, 1, -0.122, -0.122, 0, -0.115, 0.181, -103.777, -44.394, -10.878, -23.912,, 0.61716, 0.00073, 0.0018, -0.78677,
 15:10:54.059,d3:c7:8d:a5:a9:b5, 2015-01-01 00:06:21.810, 0.003, -0.001, 0.999, 0.183, 0.244, 0, -0.115, 0.181, -103.777, -44.394, -10.878, -23.912,, 0.61716, 0.00073, 0.0018, -0.78677,
 15:10:54.059,d3:c7:8d:a5:a9:b5, 2015-01-01 00:06:21.810, -0.006, -0.001, 0.999, 0.183, 0.244, 0, -0.115, 0.187, -103.777, -44.394, -10.878, -23.912,, 0.61716, 0.00073, 0.0018, -0.78677,
 15:10:54.059,d3:c7:8d:a5:a9:b5, 2015-01-01 00:06:21.810, -0.006, 0, 1, 0, 0.305, 0, -0.115, 0.187, -103.777, -44.394, -10.878, -23.912,, 0.61716, 0.00073, 0.0018, -0.78677,
 15:10:54.117,d3:c7:8d:a5:a9:b5, 2015-01-01 00:06:22.230, -0.008, 0, 1, 0, 0.305, 0, -0.115, 0.192, -103.777, -44.394, -10.878, -23.912,, 0.61716, 0.00073, 0.0018, -0.78677,
 15:10:54.117,d3:c7:8d:a5:a9:b5, 2015-01-01 00:06:22.230, -0.008, -0.002, 0.999, 0.061, -0.061, 0, -0.115, 0.192, -103.777, -44.394, -10.878, -23.912,, 0.61716, 0.00073, 0.0018, -0.78677,
 15:10:54.117,d3:c7:8d:a5:a9:b5, 2015-01-01 00:06:22.230, -0.002, -0.002, 0.999, 0.061, -0.061, 0, -0.11, 0.187, -103.777, -44.394, -10.878, -23.912,, 0.61716, 0.00073, 0.0018, -0.78677,
 15:10:54.117,d3:c7:8d:a5:a9:b5, 2015-01-01 00:06:22.230, -0.002, -0.001, 0.999, 0.244, -0.122, 0, -0.11, 0.187, -103.777, -44.394, -10.878, -23.912,, 0.61716, 0.00073, 0.0018, -0.78677,
 15:10:54.146,d3:c7:8d:a5:a9:b5, 2015-01-01 00:06:22.230, -0.001, -0.001, 0.999, 0.244, -0.122, 0, -0.11, 0.187, -103.777, -44.394, -10.878, -23.912,, 0.61716, 0.00073, 0.0018, -0.78677,
 15:10:54.146,d3:c7:8d:a5:a9:b5, 2015-01-01 00:06:22.230, -0.001, 0.001, 0.999, -0.061, 0.183, 0, -0.11, 0.187, -103.777, -44.394, -10.878, -23.912,, 0.61716, 0.00073, 0.0018, -0.78677,
 15:10:54.146,d3:c7:8d:a5:a9:b5, 2015-01-01 00:06:22.230, -0.01, 0.001, 0.999, -0.061, 0.183, 0, -0.11, 0.192, -103.777, -44.394, -10.878, -23.912,, 0.61716, 0.00073, 0.0018, -0.78677,
 15:10:54.146,d3:c7:8d:a5:a9:b5, 2015-01-01 00:06:22.230, -0.01, -0.003, 0.999, -0.183, 0.061, 0, -0.11, 0.192, -103.777, -44.394, -10.878, -23.912,, 0.61716, 0.00073, 0.0018, -0.78677,
 15:10:54.176,d3:c7:8d:a5:a9:b5, 2015-01-01 00:06:22.230, -0.006, -0.003, 0.999, -0.183, 0.061, 0, -0.11, 0.192, -103.777, -44.394, -10.878, -23.912,, 0.61716, 0.00073, 0.0018, -0.78677,
 15:10:54.176,d3:c7:8d:a5:a9:b5, 2015-01-01 00:06:22.230, -0.006, 0, 1, 0.061, -0.366, 0, -0.11, 0.192, -103.777, -44.394, -10.878, -23.912,, 0.61716, 0.00073, 0.0018, -0.78677,
 15:10:54.176,d3:c7:8d:a5:a9:b5, 2015-01-01 00:06:22.230, 0, 0, 1, 0.061, -0.366, 0, -0.11, 0.187, -103.777, -44.394, -10.878, -23.912,, 0.61716, 0.00073, 0.0018, -0.78677,
 15:10:54.176,d3:c7:8d:a5:a9:b5, 2015-01-01 00:06:22.230, 0, 0, 1, -0.305, -0.244, 0, -0.115, 0.187, -103.777, -44.394, -10.878, -23.912,, 0.61716, 0.00073, 0.0018, -0.78677,
 15:10:54.237,d3:c7:8d:a5:a9:b5, 2015-01-01 00:06:22.230, 0.001, 0, 1, -0.305, -0.244, 0, -0.115, 0.181, -103.777, -44.394, -10.878, -23.912,, 0.61716, 0.00073, 0.0018, -0.78677,
 15:10:54.237,d3:c7:8d:a5:a9:b5, 2015-01-01 00:06:22.230, -0.001, -0.005, 0.998, 0, 0, 0, -0.115, 0.181, -103.777, -44.394, -10.878, -23.912,, 0.61716, 0.00073, 0.0018, -0.78677,
 15:10:54.237,d3:c7:8d:a5:a9:b5, 2015-01-01 00:06:22.230, -0.001, -0.001, 1, 0.366, 0.183, 0, -0.115, 0.181, -103.777, -44.394, -10.878, -23.912,, 0.61716, 0.00073, 0.0018, -0.78677,
 15:10:54.237,d3:c7:8d:a5:a9:b5, 2015-01-01 00:06:22.230, -0.006, -0.001, 1, 0.366, 0.183, 0, -0.11, 0.187, -103.777, -44.394, -10.878, -23.912,, 0.61716, 0.00073, 0.0018, -0.78677,
 15:10:54.297,d3:c7:8d:a5:a9:b5, 2015-01-01 00:06:22.230, -0.006, 0, 0.998, 0, 0.122, 0, -0.11, 0.187, -103.777, -44.394, -10.878, -23.912,, 0.61716, 0.00073, 0.0018, -0.78677,
 15:10:54.297,d3:c7:8d:a5:a9:b5, 2015-01-01 00:06:22.230, -0.008, 0, 0.998, 0, 0.122, 0, -0.11, 0.187, -103.777, -44.394, -10.878, -23.912,, 0.61716, 0.00073, 0.0018, -0.78677,
 15:10:54.297,d3:c7:8d:a5:a9:b5, 2015-01-01 00:06:22.230, -0.008, -0.001, 0.999, -0.122, -0.122, 0, -0.11, 0.187, -103.777, -44.394, -10.878, -23.912,, 0.61716, 0.00073, 0.0018, -0.78677,
 15:10:54.297,d3:c7:8d:a5:a9:b5, 2015-01-01 00:06:22.230, -0.004, -0.001, 0.999, -0.122, -0.122, 0, -0.11, 0.187, -103.777, -44.394, -10.878, -23.912,, 0.61716, 0.00073, 0.0018, -0.78677,
 15:10:54.297,d3:c7:8d:a5:a9:b5, 2015-01-01 00:06:22.230, -0.004, -0.001, 0.999, -0.244, -0.122, 0, -0.11, 0.187, -103.777, -44.394, -10.878, -23.912,, 0.61716, 0.00073, 0.0018, -0.78677,
 15:10:54.297,d3:c7:8d:a5:a9:b5, 2015-01-01 00:06:22.230, -0.006, -0.001, 0.999, -0.244, -0.122, 0, -0.115, 0.187, -103.777, -44.394, -10.878, -23.912,, 0.61716, 0.00073, 0.0018, -0.78677,
 15:10:54.297,d3:c7:8d:a5:a9:b5, 2015-01-01 00:06:22.230, -0.006, -0.005, 0.999, -0.061, -0.061, 0, -0.115, 0.187, -103.777, -44.394, -10.878, -23.912,, 0.61716, 0.00073, 0.0018, -0.78677,
 15:10:54.297,d3:c7:8d:a5:a9:b5, 2015-01-01 00:06:22.230, -0.003, -0.005, 0.999, -0.061, -0.061, 0, -0.115, 0.187, -103.777, -44.394, -10.878, -23.912,, 0.61716, 0.00073, 0.0018, -0.78677,
 15:10:54.357,d3:c7:8d:a5:a9:b5, 2015-01-01 00:06:22.230, -0.003, -0.001, 0.999, 0.305, -0.061, 0, -0.115, 0.187, -103.777, -44.296, -10.878, -23.912,, 0.61716, 0.00073, 0.0018, -0.78677,
 15:10:54.357,d3:c7:8d:a5:a9:b5, 2015-01-01 00:06:22.230, -0.001, -0.001, 0.999, 0.305, -0.061, 0, -0.11, 0.187, -103.777, -44.296, -10.878, -23.912,, 0.61716, 0.00073, 0.0018, -0.78677,
 15:10:54.357,d3:c7:8d:a5:a9:b5, 2015-01-01 00:06:22.230, -0.001, 0, 0.999, 0, -0.061, 0, -0.11, 0.187, -103.777, -44.296, -10.878, -23.912,, 0.61716, 0.00073, 0.0018, -0.78677,
 15:10:54.357,d3:c7:8d:a5:a9:b5, 2015-01-01 00:06:22.230, -0.002, 0, 0.999, 0, -0.061, 0, -0.11, 0.181, -103.777, -44.296, -10.878, -23.912,, 0.61716, 0.00073, 0.0018, -0.78677,
 15:10:54.387,d3:c7:8d:a5:a9:b5, 2015-01-01 00:06:22.230, -0.002, -0.001, 0.999, -0.061, 0, 0, -0.11, 0.181, -103.777, -44.296, -10.878, -23.912,, 0.61716, 0.00067, 0.00177, -0.78677,
 15:10:54.387,d3:c7:8d:a5:a9:b5, 2015-01-01 00:06:22.230, -0.003, -0.001, 0.999, -0.061, 0, 0, -0.11, 0.181, -103.777, -44.296, -10.878, -23.912,, 0.61716, 0.00067, 0.00177, -0.78677,
 15:10:54.387,d3:c7:8d:a5:a9:b5, 2015-01-01 00:06:22.230, -0.003, -0.002, 1, 0, 0, 0, -0.11, 0.187, -103.777, -44.296, -10.878, -23.912,, 0.61716, 0.00067, 0.00177, -0.78677,
 15:10:54.388,d3:c7:8d:a5:a9:b5, 2015-01-01 00:06:22.230, -0.001, -0.002, 1, 0, 0, 0, -0.11, 0.187, -103.777, -44.296, -10.878, -23.912,, 0.61716, 0.00067, 0.00177, -0.78677,
 15:10:54.417,d3:c7:8d:a5:a9:b5, 2015-01-01 00:06:22.230, -0.001, 0, 0.998, 0, 0, 0, -0.11, 0.187, -103.777, -44.296, -10.878, -23.912,, 0.61716, 0.00067, 0.00177, -0.78677,
 15:10:54.417,d3:c7:8d:a5:a9:b5, 2015-01-01 00:06:22.230, -0.002, 0, 0.998, 0, 0, 0, -0.11, 0.187, -103.777, -44.296, -10.878, -23.912,, 0.61716, 0.00067, 0.00177, -0.78677,
 15:10:54.417,d3:c7:8d:a5:a9:b5, 2015-01-01 00:06:22.230, -0.002, -0.001, 1, -0.061, 0.122, 0, -0.11, 0.187, -103.777, -44.296, -10.878, -23.912,, 0.61716, 0.00067, 0.00177, -0.78677,
 15:10:54.418,d3:c7:8d:a5:a9:b5, 2015-01-01 00:06:22.230, -0.008, -0.001, 1, -0.061, 0.122, 0, -0.11, 0.187, -103.777, -44.296, -10.878, -23.912,, 0.61716, 0.00067, 0.00177, -0.78677,
 15:10:54.508,d3:c7:8d:a5:a9:b5, 2015-01-01 00:06:22.585, -0.008, -0.002, 0.999, 0, 0.061, 0, -0.11, 0.187, -103.777, -44.296, -10.878, -23.912,, 0.61716, 0.00067, 0.00177, -0.78677,
 15:10:54.508,d3:c7:8d:a5:a9:b5, 2015-01-01 00:06:22.585, -0.006, -0.002, 0.999, 0, 0.061, 0, -0.11, 0.187, -103.777, -44.296, -10.878, -23.912,, 0.61716, 0.00067, 0.00177, -0.78677,
 15:10:54.508,d3:c7:8d:a5:a9:b5, 2015-01-01 00:06:22.585, -0.006, -0.001, 0.999, -0.061, -0.061, 0, -0.11, 0.187, -103.777, -44.296, -10.878, -23.912,, 0.61716, 0.00067, 0.00177, -0.78677,
 15:10:54.508,d3:c7:8d:a5:a9:b5, 2015-01-01 00:06:22.585, -0.004, -0.001, 0.999, -0.061, -0.061, 0, -0.11, 0.187, -103.777, -44.296, -10.878, -23.912,, 0.61716, 0.00067, 0.00177, -0.78677,
 15:10:54.508,d3:c7:8d:a5:a9:b5, 2015-01-01 00:06:22.585, -0.004, -0.002, 0.999, 0.061, -0.122, 0, -0.11, 0.187, -103.777, -44.296, -10.878, -23.912,, 0.61716, 0.00067, 0.00177, -0.78677,
 15:10:54.509,d3:c7:8d:a5:a9:b5, 2015-01-01 00:06:22.585, 0, -0.002, 0.999, 0.061, -0.122, 0, -0.11, 0.187, -103.777, -44.296, -10.878, -23.912,, 0.61716, 0.00067, 0.00177, -0.78677,
 15:10:54.509,d3:c7:8d:a5:a9:b5, 2015-01-01 00:06:22.585, 0, 0, 0.999, 0.061, -0.061, 0, -0.11, 0.187, -103.777, -44.296, -10.878, -23.912,, 0.61716, 0.00067, 0.00177, -0.78677,
 15:10:54.509,d3:c7:8d:a5:a9:b5, 2015-01-01 00:06:22.585, -0.002, 0, 0.999, 0.061, -0.061, 0, -0.11, 0.187, -103.777, -44.296, -10.878, -23.912,, 0.61716, 0.00067, 0.00177, -0.78677,
 15:10:54.538,d3:c7:8d:a5:a9:b5, 2015-01-01 00:06:22.585, -0.002, 0, 1, -0.244, 0, 0, -0.11, 0.187, -103.777, -44.296, -10.878, -23.912,, 0.61716, 0.00067, 0.00177, -0.78677,
 15:10:54.538,d3:c7:8d:a5:a9:b5, 2015-01-01 00:06:22.585, -0.002, 0, 1, -0.244, 0, 0, -0.11, 0.187, -103.777, -44.296, -10.878, -23.912,, 0.61716, 0.00067, 0.00177, -0.78677,
 15:10:54.538,d3:c7:8d:a5:a9:b5, 2015-01-01 00:06:22.585, -0.002, -0.003, 0.999, -0.122, 0, 0, -0.115, 0.187, -103.777, -44.296, -10.878, -23.912,, 0.61716, 0.00067, 0.00177, -0.78677,
 15:10:54.538,d3:c7:8d:a5:a9:b5, 2015-01-01 00:06:22.585, -0.003, -0.003, 0.999, -0.122, 0, 0, -0.115, 0.187, -103.777, -44.296, -10.878, -23.912,, 0.61716, 0.00067, 0.00177, -0.78677,
 15:10:54.597,d3:c7:8d:a5:a9:b5, 2015-01-01 00:06:22.585, -0.003, -0.001, 0.999, 0, -0.061, 0, -0.115, 0.187, -103.777, -44.296, -10.878, -23.912,, 0.61716, 0.00067, 0.00177, -0.78677,
 15:10:54.597,d3:c7:8d:a5:a9:b5, 2015-01-01 00:06:22.585, -0.004, -0.001, 0.999, 0, -0.061, 0, -0.115, 0.181, -103.777, -44.296, -10.878, -23.912,, 0.61716, 0.00067, 0.00177, -0.78677,
 15:10:54.597,d3:c7:8d:a5:a9:b5, 2015-01-01 00:06:22.585, -0.004, -0.003, 0.999, 0, -0.061, 0, -0.115, 0.181, -103.777, -44.296, -10.878, -23.912,, 0.61716, 0.00067, 0.00177, -0.78677,
 15:10:54.597,d3:c7:8d:a5:a9:b5, 2015-01-01 00:06:22.585, -0.005, -0.003, 0.999, 0, -0.061, 0, -0.115, 0.181, -103.777, -44.296, -10.878, -23.912,, 0.61716, 0.00067, 0.00177, -0.78677,
 15:10:54.628,d3:c7:8d:a5:a9:b5, 2015-01-01 00:06:22.585, -0.005, -0.002, 1, 0.061, 0, 0, -0.115, 0.181, -103.777, -44.296, -10.878, -23.912,, 0.61716, 0.00067, 0.00177, -0.78677,
 15:10:54.628,d3:c7:8d:a5:a9:b5, 2015-01-01 00:06:22.585, -0.005, -0.002, 1, 0.061, 0, 0, -0.115, 0.181, -103.777, -44.296, -10.878, -23.912,, 0.61716, 0.00067, 0.00177, -0.78677,
 15:10:54.628,d3:c7:8d:a5:a9:b5, 2015-01-01 00:06:22.585, -0.005, -0.001, 0.998, 0, 0.061, 0, -0.115, 0.181, -103.777, -44.296, -10.878, -23.912,, 0.61716, 0.00067, 0.00177, -0.78677,
 15:10:54.628,d3:c7:8d:a5:a9:b5, 2015-01-01 00:06:22.585, -0.007, -0.001, 0.998, 0, 0.061, 0, -0.115, 0.181, -103.777, -44.296, -10.878, -23.912,, 0.61716, 0.00067, 0.00177, -0.78677,
 15:10:54.659,d3:c7:8d:a5:a9:b5, 2015-01-01 00:06:22.585, -0.007, -0.001, 0.999, 0, 0, 0, -0.115, 0.187, -103.777, -44.492, -10.780, -23.912,, 0.61716, 0.00067, 0.00177, -0.78677,
 15:10:54.659,d3:c7:8d:a5:a9:b5, 2015-01-01 00:06:22.585, -0.003, -0.001, 0.999, 0, 0, 0, -0.115, 0.187, -103.777, -44.492, -10.780, -23.912,, 0.61716, 0.00067, 0.00177, -0.78677,
 15:10:54.659,d3:c7:8d:a5:a9:b5, 2015-01-01 00:06:22.585, -0.003, 0, 1, 0, -0.122, 0, -0.11, 0.187, -103.777, -44.492, -10.780, -23.912,, 0.61716, 0.00067, 0.00177, -0.78677,
 15:10:54.659,d3:c7:8d:a5:a9:b5, 2015-01-01 00:06:22.585, 0, 0, 1, 0, -0.122, 0, -0.11, 0.181, -103.777, -44.492, -10.780, -23.912,, 0.61716, 0.00067, 0.00177, -0.78677,
 15:10:54.718,d3:c7:8d:a5:a9:b5, 2015-01-01 00:06:22.585, 0, -0.001, 1, -0.244, 0, 0, -0.115, 0.187, -103.777, -44.492, -10.780, -23.912,, 0.61716, 0.00067, 0.00177, -0.78677,
 15:10:54.718,d3:c7:8d:a5:a9:b5, 2015-01-01 00:06:22.585, -0.002, -0.001, 1, -0.244, 0, 0, -0.115, 0.187, -103.777, -44.492, -10.780, -23.912,, 0.61716, 0.00067, 0.00177, -0.78677,
 15:10:54.718,d3:c7:8d:a5:a9:b5, 2015-01-01 00:06:22.585, -0.002, -0.006, 1, 0, 0, 0, -0.115, 0.187, -103.777, -44.492, -10.780, -23.912,, 0.61716, 0.00067, 0.00177, -0.78677,
 15:10:54.718,d3:c7:8d:a5:a9:b5, 2015-01-01 00:06:22.585, -0.002, -0.006, 1, 0, 0, 0, -0.115, 0.187, -103.777, -44.492, -10.780, -23.912,, 0.61716, 0.00067, 0.00177, -0.78677,
 15:10:54.747,d3:c7:8d:a5:a9:b5, 2015-01-01 00:06:22.585, -0.002, -0.002, 0.999, 0.549, 0, 0, -0.11, 0.187, -103.777, -44.492, -10.780, -23.912,, 0.61716, 0.00061, 0.0018, -0.78677,
 15:10:54.747,d3:c7:8d:a5:a9:b5, 2015-01-01 00:06:22.585, -0.001, -0.002, 0.999, 0.549, 0, 0, -0.104, 0.187, -103.777, -44.492, -10.780, -23.912,, 0.61716, 0.00061, 0.0018, -0.78677,
 15:10:54.747,d3:c7:8d:a5:a9:b5, 2015-01-01 00:06:22.585, -0.001, 0.001, 0.999, 0.244, 0, 0, -0.104, 0.187, -103.777, -44.492, -10.780, -23.912,, 0.61716, 0.00061, 0.0018, -0.78677,
 15:10:54.747,d3:c7:8d:a5:a9:b5, 2015-01-01 00:06:22.585, -0.006, 0.001, 0.999, 0.244, 0, 0, -0.099, 0.187, -103.777, -44.492, -10.780, -23.912,, 0.61716, 0.00061, 0.0018, -0.78677,
 15:10:54.778,d3:c7:8d:a5:a9:b5, 2015-01-01 00:06:22.585, -0.006, 0, 0.999, -0.122, 0.061, 0, -0.104, 0.187, -103.777, -44.492, -10.780, -23.912,, 0.61716, 0.00061, 0.0018, -0.78677,
 15:10:54.778,d3:c7:8d:a5:a9:b5, 2015-01-01 00:06:22.585, -0.008, 0, 0.999, -0.122, 0.061, 0, -0.104, 0.187, -103.777, -44.492, -10.780, -23.912,, 0.61716, 0.00061, 0.0018, -0.78677,
 15:10:54.778,d3:c7:8d:a5:a9:b5, 2015-01-01 00:06:22.585, -0.008, 0, 0.998, -0.427, 0, 0, -0.11, 0.187, -103.777, -44.492, -10.780, -23.912,, 0.61716, 0.00061, 0.0018, -0.78677,
 15:10:54.778,d3:c7:8d:a5:a9:b5, 2015-01-01 00:06:22.585, -0.006, 0, 0.998, -0.427, 0, 0, -0.11, 0.187, -103.777, -44.492, -10.780, -23.912,, 0.61716, 0.00061, 0.0018, -0.78677,
 15:10:54.868,d3:c7:8d:a5:a9:b5, 2015-01-01 00:06:22.945, -0.006, -0.003, 0.999, -0.366, -0.061, 0, -0.115, 0.187, -103.777, -44.492, -10.780, -23.912,, 0.61716, 0.00061, 0.0018, -0.78677,
 15:10:54.868,d3:c7:8d:a5:a9:b5, 2015-01-01 00:06:22.945, -0.002, -0.003, 0.999, -0.366, -0.061, 0, -0.121, 0.187, -103.777, -44.492, -10.780, -23.912,, 0.61716, 0.00061, 0.0018, -0.78677,
 15:10:54.868,d3:c7:8d:a5:a9:b5, 2015-01-01 00:06:22.945, -0.002, -0.004, 1, 0.061, 0, 0, -0.115, 0.187, -103.777, -44.492, -10.780, -23.912,, 0.61716, 0.00061, 0.0018, -0.78677,
 15:10:54.868,d3:c7:8d:a5:a9:b5, 2015-01-01 00:06:22.945, 0.001, -0.004, 1, 0.061, 0, 0, -0.115, 0.187, -103.777, -44.492, -10.780, -23.912,, 0.61716, 0.00061, 0.0018, -0.78677,
 15:10:54.868,d3:c7:8d:a5:a9:b5, 2015-01-01 00:06:22.945, 0.001, -0.001, 1, 0.305, 0.122, 0, -0.115, 0.187, -103.777, -44.492, -10.780, -23.912,, 0.61716, 0.00061, 0.0018, -0.78677,
 15:10:54.868,d3:c7:8d:a5:a9:b5, 2015-01-01 00:06:22.945, -0.003, -0.001, 1, 0.305, 0.122, 0, -0.11, 0.187, -103.777, -44.492, -10.780, -23.912,, 0.61716, 0.00061, 0.0018, -0.78677,
 15:10:54.868,d3:c7:8d:a5:a9:b5, 2015-01-01 00:06:22.945, -0.003, 0, 0.997, 0.183, 0.122, 0, -0.11, 0.192, -103.777, -44.492, -10.780, -23.912,, 0.61716, 0.00061, 0.0018, -0.78677,
 15:10:54.869,d3:c7:8d:a5:a9:b5, 2015-01-01 00:06:22.945, -0.004, 0, 0.997, 0.183, 0.122, 0, -0.11, 0.192, -103.777, -44.492, -10.780, -23.912,, 0.61716, 0.00061, 0.0018, -0.78677,
 15:10:54.897,d3:c7:8d:a5:a9:b5, 2015-01-01 00:06:22.945, -0.004, 0, 0.999, -0.244, -0.183, 0, -0.11, 0.187, -103.777, -44.492, -10.780, -23.912,, 0.61716, 0.00061, 0.0018, -0.78677,
 15:10:54.897,d3:c7:8d:a5:a9:b5, 2015-01-01 00:06:22.945, 0, 0, 0.999, -0.244, -0.183, 0, -0.11, 0.187, -103.777, -44.492, -10.780, -23.912,, 0.61716, 0.00061, 0.0018, -0.78677,
 15:10:54.897,d3:c7:8d:a5:a9:b5, 2015-01-01 00:06:22.945, 0, -0.002, 1, -0.061, -0.183, 0, -0.11, 0.187, -103.777, -44.492, -10.780, -23.912,, 0.61716, 0.00061, 0.0018, -0.78677,
 15:10:54.897,d3:c7:8d:a5:a9:b5, 2015-01-01 00:06:22.945, -0.005, -0.002, 1, -0.061, -0.183, 0, -0.115, 0.181, -103.777, -44.492, -10.780, -23.912,, 0.61716, 0.00061, 0.0018, -0.78677,
 15:10:54.958,d3:c7:8d:a5:a9:b5, 2015-01-01 00:06:22.945, -0.005, -0.002, 0.999, -0.183, 0.061, 0, -0.115, 0.187, -103.777, -44.492, -10.780, -23.912,, 0.61716, 0.00061, 0.0018, -0.78677,
 15:10:54.958,d3:c7:8d:a5:a9:b5, 2015-01-01 00:06:22.945, -0.007, -0.002, 0.999, -0.183, 0.061, 0, -0.115, 0.187, -103.777, -44.492, -10.780, -23.912,, 0.61716, 0.00061, 0.0018, -0.78677,
 15:10:54.958,d3:c7:8d:a5:a9:b5, 2015-01-01 00:06:22.945, -0.007, -0.005, 0.999, 0.061, 0, 0, -0.115, 0.187, -103.777, -44.492, -10.780, -23.912,, 0.61716, 0.00061, 0.0018, -0.78677,
 15:10:54.958,d3:c7:8d:a5:a9:b5, 2015-01-01 00:06:22.945, -0.005, -0.005, 0.999, 0.061, 0, 0, -0.115, 0.187, -103.777, -44.492, -10.780, -23.912,, 0.61716, 0.00061, 0.0018, -0.78677,
 15:10:54.987,d3:c7:8d:a5:a9:b5, 2015-01-01 00:06:22.945, -0.005, 0, 0.999, 0.244, 0, 0, -0.11, 0.187, -103.777, -44.492, -10.780, -23.912,, 0.61716, 0.00061, 0.0018, -0.78677,
 15:10:54.987,d3:c7:8d:a5:a9:b5, 2015-01-01 00:06:22.945, -0.002, 0, 0.999, 0.244, 0, 0, -0.11, 0.187, -103.777, -44.492, -10.780, -23.912,, 0.61716, 0.00061, 0.0018, -0.78677,
 15:10:54.987,d3:c7:8d:a5:a9:b5, 2015-01-01 00:06:22.945, -0.002, 0.001, 1, -0.122, 0, 0, -0.11, 0.187, -103.777, -44.492, -10.780, -23.912,, 0.61716, 0.00061, 0.0018, -0.78677,
 15:10:54.987,d3:c7:8d:a5:a9:b5, 2015-01-01 00:06:22.945, -0.003, 0.001, 1, -0.122, 0, 0, -0.11, 0.187, -103.777, -44.492, -10.780, -23.912,, 0.61716, 0.00061, 0.0018, -0.78677,
 15:10:55.017,d3:c7:8d:a5:a9:b5, 2015-01-01 00:06:22.945, -0.003, -0.004, 0.999, -0.122, 0, 0, -0.115, 0.187, -103.777, -44.492, -10.976, -23.912,, 0.61716, 0.00061, 0.0018, -0.78677,
 15:10:55.017,d3:c7:8d:a5:a9:b5, 2015-01-01 00:06:22.945, -0.003, -0.004, 0.999, -0.122, 0, 0, -0.115, 0.187, -103.777, -44.492, -10.976, -23.912,, 0.61716, 0.00061, 0.0018, -0.78677,
 15:10:55.017,d3:c7:8d:a5:a9:b5, 2015-01-01 00:06:22.945, -0.003, -0.001, 0.999, 0.183, 0.061, 0, -0.11, 0.187, -103.777, -44.492, -10.976, -23.912,, 0.61716, 0.00061, 0.0018, -0.78677,
 15:10:55.017,d3:c7:8d:a5:a9:b5, 2015-01-01 00:06:22.945, -0.005, -0.001, 0.999, 0.183, 0.061, 0, -0.11, 0.187, -103.777, -44.492, -10.976, -23.912,, 0.61716, 0.00061, 0.0018, -0.78677,
 15:10:55.078,d3:c7:8d:a5:a9:b5, 2015-01-01 00:06:22.945, -0.005, -0.001, 0.999, -0.061, -0.183, 0, -0.11, 0.187, -103.777, -44.492, -10.976, -23.912,, 0.61716, 0.00061, 0.0018, -0.78677,
 15:10:55.078,d3:c7:8d:a5:a9:b5, 2015-01-01 00:06:22.945, -0.002, -0.001, 0.999, -0.061, -0.183, 0, -0.11, 0.187, -103.777, -44.492, -10.976, -23.912,, 0.61716, 0.00061, 0.0018, -0.78677,
 15:10:55.078,d3:c7:8d:a5:a9:b5, 2015-01-01 00:06:22.945, -0.002, -0.001, 0.999, -0.061, -0.244, 0, -0.11, 0.181, -103.777, -44.492, -10.976, -23.912,, 0.61716, 0.00061, 0.0018, -0.78677,
 15:10:55.078,d3:c7:8d:a5:a9:b5, 2015-01-01 00:06:22.945, -0.001, -0.001, 0.999, -0.061, -0.244, 0, -0.115, 0.181, -103.777, -44.492, -10.976, -23.912,, 0.61716, 0.00061, 0.0018, -0.78677,
 15:10:55.106,d3:c7:8d:a5:a9:b5, 2015-01-01 00:06:22.945, -0.001, 0, 1, 0, -0.122, 0, -0.11, 0.181, -103.777, -44.492, -10.976, -23.912,, 0.61713, 0.00067, 0.00177, -0.78677,
 15:10:55.106,d3:c7:8d:a5:a9:b5, 2015-01-01 00:06:22.945, -0.001, 0, 1, 0, -0.122, 0, -0.11, 0.176, -103.777, -44.492, -10.976, -23.912,, 0.61713, 0.00067, 0.00177, -0.78677,
 15:10:55.106,d3:c7:8d:a5:a9:b5, 2015-01-01 00:06:22.945, -0.006, 0, 0.999, -0.122, 0.183, 0, -0.115, 0.181, -103.777, -44.492, -10.976, -23.912,, 0.61713, 0.00067, 0.00177, -0.78677,
 15:10:55.106,d3:c7:8d:a5:a9:b5, 2015-01-01 00:06:22.945, -0.006, -0.005, 0.998, -0.122, 0.305, 0, -0.115, 0.181, -103.777, -44.492, -10.976, -23.912,, 0.61713, 0.00067, 0.00177, -0.78677,
 15:10:55.137,d3:c7:8d:a5:a9:b5, 2015-01-01 00:06:22.945, -0.008, -0.005, 0.998, -0.122, 0.305, 0, -0.115, 0.187, -103.777, -44.492, -10.976, -23.912,, 0.61713, 0.00067, 0.00177, -0.78677,
 15:10:55.137,d3:c7:8d:a5:a9:b5, 2015-01-01 00:06:22.945, -0.008, -0.001, 0.998, 0.305, 0.061, 0, -0.115, 0.187, -103.777, -44.492, -10.976, -23.912,, 0.61713, 0.00067, 0.00177, -0.78677,
 15:10:55.137,d3:c7:8d:a5:a9:b5, 2015-01-01 00:06:22.945, -0.004, -0.001, 0.998, 0.305, 0.061, 0, -0.11, 0.187, -103.777, -44.492, -10.976, -23.912,, 0.61713, 0.00067, 0.00177, -0.78677,
 15:10:55.137,d3:c7:8d:a5:a9:b5, 2015-01-01 00:06:22.945, -0.004, 0.001, 0.999, 0, -0.122, 0, -0.11, 0.187, -103.777, -44.492, -10.976, -23.912,, 0.61713, 0.00067, 0.00177, -0.78677,
 15:10:55.196,d3:c7:8d:a5:a9:b5, 2015-01-01 00:06:23.300, -0.001, 0.001, 0.999, 0, -0.122, 0, -0.11, 0.187, -103.777, -44.492, -10.976, -23.912,, 0.61713, 0.00067, 0.00177, -0.78677,
 15:10:55.196,d3:c7:8d:a5:a9:b5, 2015-01-01 00:06:23.300, -0.001, 0, 0.999, -0.366, -0.061, 0, -0.11, 0.187, -103.777, -44.492, -10.976, -23.912,, 0.61713, 0.00067, 0.00177, -0.78677,
 15:10:55.196,d3:c7:8d:a5:a9:b5, 2015-01-01 00:06:23.300, -0.004, 0, 0.999, -0.366, -0.061, 0, -0.115, 0.187, -103.777, -44.492, -10.976, -23.912,, 0.61713, 0.00067, 0.00177, -0.78677,
 15:10:55.196,d3:c7:8d:a5:a9:b5, 2015-01-01 00:06:23.300, -0.004, -0.004, 1, -0.183, -0.061, 0, -0.115, 0.187, -103.777, -44.492, -10.976, -23.912,, 0.61713, 0.00067, 0.00177, -0.78677,
 15:10:55.228,d3:c7:8d:a5:a9:b5, 2015-01-01 00:06:23.300, -0.003, -0.004, 1, -0.183, -0.061, 0, -0.121, 0.187, -103.777, -44.492, -10.976, -23.912,, 0.61713, 0.00067, 0.00177, -0.78677,
 15:10:55.228,d3:c7:8d:a5:a9:b5, 2015-01-01 00:06:23.300, -0.003, -0.003, 0.999, 0.183, -0.061, 0, -0.121, 0.187, -103.777, -44.492, -10.976, -23.912,, 0.61713, 0.00067, 0.00177, -0.78677,
 15:10:55.228,d3:c7:8d:a5:a9:b5, 2015-01-01 00:06:23.300, 0, -0.003, 0.999, 0.183, -0.061, 0, -0.115, 0.187, -103.777, -44.492, -10.976, -23.912,, 0.61713, 0.00067, 0.00177, -0.78677,
 15:10:55.228,d3:c7:8d:a5:a9:b5, 2015-01-01 00:06:23.300, 0, -0.001, 0.999, 0.061, -0.061, 0, -0.115, 0.187, -103.777, -44.492, -10.976, -23.912,, 0.61713, 0.00067, 0.00177, -0.78677,
 15:10:55.257,d3:c7:8d:a5:a9:b5, 2015-01-01 00:06:23.300, -0.001, -0.001, 0.999, 0.061, -0.061, 0, -0.115, 0.187, -103.777, -44.492, -10.976, -23.912,, 0.61713, 0.00067, 0.00177, -0.78677,
 15:10:55.257,d3:c7:8d:a5:a9:b5, 2015-01-01 00:06:23.300, -0.001, 0, 0.999, 0, 0.061, 0, -0.115, 0.187, -103.777, -44.492, -10.976, -23.912,, 0.61713, 0.00067, 0.00177, -0.78677,
 15:10:55.257,d3:c7:8d:a5:a9:b5, 2015-01-01 00:06:23.300, -0.006, 0, 0.999, 0, 0.061, 0, -0.115, 0.187, -103.777, -44.492, -10.976, -23.912,, 0.61713, 0.00067, 0.00177, -0.78677,
 15:10:55.257,d3:c7:8d:a5:a9:b5, 2015-01-01 00:06:23.300, -0.006, -0.002, 1, -0.061, 0.122, 0, -0.115, 0.187, -103.777, -44.492, -10.976, -23.912,, 0.61713, 0.00067, 0.00177, -0.78677,
 15:10:55.317,d3:c7:8d:a5:a9:b5, 2015-01-01 00:06:23.300, -0.005, -0.002, 1, -0.061, 0.122, 0, -0.115, 0.187, -103.777, -44.492, -10.976, -23.912,, 0.61713, 0.00067, 0.00177, -0.78677,
 15:10:55.317,d3:c7:8d:a5:a9:b5, 2015-01-01 00:06:23.300, -0.005, -0.002, 0.998, 0, 0, 0, -0.115, 0.187, -103.777, -44.492, -10.976, -23.912,, 0.61713, 0.00067, 0.00177, -0.78677,
 15:10:55.317,d3:c7:8d:a5:a9:b5, 2015-01-01 00:06:23.300, -0.003, -0.002, 0.998, 0, 0, 0, -0.115, 0.187, -103.777, -44.492, -10.976, -23.912,, 0.61713, 0.00067, 0.00177, -0.78677,
 15:10:55.317,d3:c7:8d:a5:a9:b5, 2015-01-01 00:06:23.300, -0.003, -0.001, 0.999, -0.061, -0.061, 0, -0.115, 0.187, -103.777, -44.492, -10.976, -23.912,, 0.61713, 0.00067, 0.00177, -0.78677,
 15:10:55.347,d3:c7:8d:a5:a9:b5, 2015-01-01 00:06:23.300, -0.003, -0.001, 0.999, -0.061, -0.061, 0, -0.115, 0.187, -103.777, -44.492, -10.976, -23.912,, 0.61713, 0.00067, 0.00177, -0.78677,
 15:10:55.347,d3:c7:8d:a5:a9:b5, 2015-01-01 00:06:23.300, -0.003, -0.002, 1, 0, 0, 0, -0.115, 0.187, -103.777, -44.492, -10.976, -23.912,, 0.61713, 0.00067, 0.00177, -0.78677,
 15:10:55.347,d3:c7:8d:a5:a9:b5, 2015-01-01 00:06:23.300, -0.002, -0.002, 1, 0, 0, 0, -0.115, 0.187, -103.777, -44.492, -10.976, -23.912,, 0.61713, 0.00067, 0.00177, -0.78677,
 15:10:55.347,d3:c7:8d:a5:a9:b5, 2015-01-01 00:06:23.300, -0.002, -0.001, 0.999, 0, 0, 0, -0.115, 0.187, -103.777, -44.492, -10.976, -23.912,, 0.61713, 0.00067, 0.00177, -0.78677,
 15:10:55.377,d3:c7:8d:a5:a9:b5, 2015-01-01 00:06:23.300, -0.001, -0.001, 0.999, 0, 0, 0, -0.115, 0.187, -103.777, -44.394, -10.878, -23.912,, 0.61713, 0.00067, 0.00177, -0.78677,
 15:10:55.377,d3:c7:8d:a5:a9:b5, 2015-01-01 00:06:23.300, -0.001, -0.001, 0.999, -0.122, 0, 0, -0.115, 0.187, -103.777, -44.394, -10.878, -23.912,, 0.61713, 0.00067, 0.00177, -0.78677,
 15:10:55.377,d3:c7:8d:a5:a9:b5, 2015-01-01 00:06:23.300, -0.004, -0.001, 0.999, -0.122, 0, 0, -0.121, 0.187, -103.777, -44.394, -10.878, -23.912,, 0.61713, 0.00067, 0.00177, -0.78677,
 15:10:55.377,d3:c7:8d:a5:a9:b5, 2015-01-01 00:06:23.300, -0.004, -0.003, 1, 0, 0, 0, -0.121, 0.187, -103.777, -44.394, -10.878, -23.912,, 0.61713, 0.00067, 0.00177, -0.78677,
 15:10:55.438,d3:c7:8d:a5:a9:b5, 2015-01-01 00:06:23.300, -0.002, -0.003, 1, 0, 0, 0, -0.121, 0.187, -103.777, -44.394, -10.878, -23.912,, 0.61713, 0.00067, 0.00177, -0.78677,
 15:10:55.438,d3:c7:8d:a5:a9:b5, 2015-01-01 00:06:23.300, -0.002, 0, 1, 0.061, 0, 0, -0.121, 0.187, -103.777, -44.394, -10.878, -23.912,, 0.61713, 0.00067, 0.00177, -0.78677,
 15:10:55.438,d3:c7:8d:a5:a9:b5, 2015-01-01 00:06:23.300, -0.004, 0, 1, 0.061, 0, 0, -0.115, 0.187, -103.777, -44.394, -10.878, -23.912,, 0.61713, 0.00067, 0.00177, -0.78677,
 15:10:55.438,d3:c7:8d:a5:a9:b5, 2015-01-01 00:06:23.300, -0.004, -0.001, 0.998, -0.183, 0, 0, -0.115, 0.187, -103.777, -44.394, -10.878, -23.912,, 0.61713, 0.00067, 0.00177, -0.78677,
 15:10:55.467,d3:c7:8d:a5:a9:b5, 2015-01-01 00:06:23.300, -0.005, -0.001, 0.998, -0.183, 0, 0, -0.121, 0.187, -103.777, -44.394, -10.878, -23.912,, 0.61713, 0.00064, 0.00183, -0.78677,
 15:10:55.467,d3:c7:8d:a5:a9:b5, 2015-01-01 00:06:23.300, -0.005, -0.002, 1, -0.061, 0.061, 0, -0.121, 0.187, -103.777, -44.394, -10.878, -23.912,, 0.61713, 0.00064, 0.00183, -0.78677,
 15:10:55.467,d3:c7:8d:a5:a9:b5, 2015-01-01 00:06:23.300, -0.009, -0.002, 1, -0.061, 0.061, 0, -0.121, 0.187, -103.777, -44.394, -10.878, -23.912,, 0.61713, 0.00064, 0.00183, -0.78677,
 15:10:55.467,d3:c7:8d:a5:a9:b5, 2015-01-01 00:06:23.300, -0.009, -0.002, 0.998, -0.122, 0.122, 0, -0.121, 0.187, -103.777, -44.394, -10.878, -23.912,, 0.61713, 0.00064, 0.00183, -0.78677,
 15:10:55.527,d3:c7:8d:a5:a9:b5, 2015-01-01 00:06:23.300, -0.007, -0.002, 0.998, -0.122, 0.122, 0, -0.121, 0.192, -103.777, -44.394, -10.878, -23.912,, 0.61713, 0.00064, 0.00183, -0.78677,
 15:10:55.527,d3:c7:8d:a5:a9:b5, 2015-01-01 00:06:23.300, -0.007, 0, 0.999, 0.061, -0.061, 0, -0.121, 0.192, -103.777, -44.394, -10.878, -23.912,, 0.61713, 0.00064, 0.00183, -0.78677,
 15:10:55.527,d3:c7:8d:a5:a9:b5, 2015-01-01 00:06:23.300, -0.001, 0, 0.999, 0.061, -0.061, 0, -0.121, 0.192, -103.777, -44.394, -10.878, -23.912,, 0.61713, 0.00064, 0.00183, -0.78677,
 15:10:55.527,d3:c7:8d:a5:a9:b5, 2015-01-01 00:06:23.300, -0.001, 0, 1, -0.122, -0.122, 0, -0.121, 0.192, -103.777, -44.394, -10.878, -23.912,, 0.61713, 0.00064, 0.00183, -0.78677,
 15:10:55.556,d3:c7:8d:a5:a9:b5, 2015-01-01 00:06:23.660, -0.001, 0, 1, -0.122, -0.122, 0, -0.126, 0.192, -103.777, -44.394, -10.878, -23.912,, 0.61713, 0.00064, 0.00183, -0.78677,
 15:10:55.556,d3:c7:8d:a5:a9:b5, 2015-01-01 00:06:23.660, -0.001, -0.003, 0.999, -0.183, 0, 0, -0.126, 0.192, -103.777, -44.394, -10.878, -23.912,, 0.61713, 0.00064, 0.00183, -0.78677,
 15:10:55.556,d3:c7:8d:a5:a9:b5, 2015-01-01 00:06:23.660, -0.002, -0.003, 0.999, -0.183, 0, 0, -0.126, 0.192, -103.777, -44.394, -10.878, -23.912,, 0.61713, 0.00064, 0.00183, -0.78677,
 15:10:55.556,d3:c7:8d:a5:a9:b5, 2015-01-01 00:06:23.660, -0.002, -0.002, 0.999, 0.122, -0.061, 0, -0.126, 0.192, -103.777, -44.394, -10.878, -23.912,, 0.61713, 0.00064, 0.00183, -0.78677,
 15:10:55.589,d3:c7:8d:a5:a9:b5, 2015-01-01 00:06:23.660, 0, -0.002, 0.999, 0.122, -0.061, 0, -0.126, 0.192, -103.777, -44.394, -10.878, -23.912,, 0.61713, 0.00064, 0.00183, -0.78677,
 15:10:55.589,d3:c7:8d:a5:a9:b5, 2015-01-01 00:06:23.660, 0, 0, 0.998, -0.061, 0, 0, -0.126, 0.192, -103.777, -44.394, -10.878, -23.912,, 0.61713, 0.00064, 0.00183, -0.78677,
 15:10:55.589,d3:c7:8d:a5:a9:b5, 2015-01-01 00:06:23.660, -0.001, 0, 0.998, -0.061, 0, 0, -0.126, 0.192, -103.777, -44.394, -10.878, -23.912,, 0.61713, 0.00064, 0.00183, -0.78677,
 15:10:55.589,d3:c7:8d:a5:a9:b5, 2015-01-01 00:06:23.660, -0.001, -0.003, 1, -0.061, 0, 0, -0.126, 0.187, -103.777, -44.394, -10.878, -23.912,, 0.61713, 0.00064, 0.00183, -0.78677,
 15:10:55.647,d3:c7:8d:a5:a9:b5, 2015-01-01 00:06:23.660, -0.006, -0.003, 1, -0.061, 0, 0, -0.126, 0.187, -103.777, -44.394, -10.878, -23.912,, 0.61713, 0.00064, 0.00183, -0.78677,
 15:10:55.647,d3:c7:8d:a5:a9:b5, 2015-01-01 00:06:23.660, -0.006, -0.002, 0.999, 0.061, 0.183, 0, -0.126, 0.192, -103.777, -44.394, -10.878, -23.912,, 0.61713, 0.00064, 0.00183, -0.78677,
 15:10:55.647,d3:c7:8d:a5:a9:b5, 2015-01-01 00:06:23.660, -0.005, -0.002, 0.999, 0.061, 0.183, 0, -0.126, 0.192, -103.777, -44.394, -10.878, -23.912,, 0.61713, 0.00064, 0.00183, -0.78677,
 15:10:55.653,d3:c7:8d:a5:a9:b5, 2015-01-01 00:06:23.660, -0.005, -0.002, 1, 0, 0.061, 0, -0.126, 0.192, -103.777, -44.394, -10.878, -23.912,, 0.61713, 0.00064, 0.00183, -0.78677,
 15:10:55.677,d3:c7:8d:a5:a9:b5, 2015-01-01 00:06:23.660, -0.004, -0.002, 1, 0, 0.061, 0, -0.126, 0.192, -103.777, -44.394, -10.878, -23.912,, 0.61713, 0.00064, 0.00183, -0.78677,
 15:10:55.677,d3:c7:8d:a5:a9:b5, 2015-01-01 00:06:23.660, -0.004, -0.002, 0.998, 0.061, 0.183, 0, -0.126, 0.198, -103.777, -44.394, -10.878, -23.912,, 0.61713, 0.00064, 0.00183, -0.78677,
 15:10:55.677,d3:c7:8d:a5:a9:b5, 2015-01-01 00:06:23.660, -0.004, -0.002, 0.998, 0.061, 0.183, 0, -0.126, 0.198, -103.777, -44.394, -10.878, -23.912,, 0.61713, 0.00064, 0.00183, -0.78677,
 15:10:55.677,d3:c7:8d:a5:a9:b5, 2015-01-01 00:06:23.660, -0.004, 0, 0.999, -0.183, 0.183, 0, -0.126, 0.198, -103.777, -44.394, -10.878, -23.912,, 0.61713, 0.00064, 0.00183, -0.78677,
 15:10:55.707,d3:c7:8d:a5:a9:b5, 2015-01-01 00:06:23.660, -0.007, 0, 0.999, -0.183, 0.183, 0, -0.126, 0.203, -103.777, -44.394, -10.878, -23.912,, 0.61713, 0.00064, 0.00183, -0.78677,
 15:10:55.707,d3:c7:8d:a5:a9:b5, 2015-01-01 00:06:23.660, -0.007, -0.002, 0.999, -0.427, -0.061, 0, -0.132, 0.203, -103.777, -44.394, -10.878, -23.912,, 0.61713, 0.00064, 0.00183, -0.78677,
 15:10:55.707,d3:c7:8d:a5:a9:b5, 2015-01-01 00:06:23.660, 0, -0.002, 0.999, -0.427, -0.061, 0, -0.137, 0.203, -103.777, -44.394, -10.878, -23.912,, 0.61713, 0.00064, 0.00183, -0.78677,
 15:10:55.707,d3:c7:8d:a5:a9:b5, 2015-01-01 00:06:23.660, 0, -0.003, 1, -0.061, -0.244, 0, -0.137, 0.198, -103.777, -44.394, -10.878, -23.912,, 0.61713, 0.00064, 0.00183, -0.78677,
 15:10:55.768,d3:c7:8d:a5:a9:b5, 2015-01-01 00:06:23.660, 0, -0.003, 1, -0.061, -0.244, 0, -0.137, 0.198, -103.777, -44.394, -10.878, -23.912,, 0.61713, 0.00064, 0.00183, -0.78677,
 15:10:55.768,d3:c7:8d:a5:a9:b5, 2015-01-01 00:06:23.660, 0, -0.001, 1, 0.061, 0.061, 0, -0.137, 0.198, -103.777, -44.394, -10.878, -23.912,, 0.61713, 0.00064, 0.00183, -0.78677,
 15:10:55.768,d3:c7:8d:a5:a9:b5, 2015-01-01 00:06:23.660, -0.001, -0.001, 1, 0.061, 0.061, 0, -0.137, 0.198, -103.777, -44.394, -10.878, -23.912,, 0.61713, 0.00064, 0.00183, -0.78677,
 15:10:55.768,d3:c7:8d:a5:a9:b5, 2015-01-01 00:06:23.660, -0.001, -0.002, 0.998, 0.305, 0.244, 0, -0.132, 0.198, -103.777, -44.394, -10.878, -23.912,, 0.61713, 0.00064, 0.00183, -0.78677,
 15:10:55.797,d3:c7:8d:a5:a9:b5, 2015-01-01 00:06:23.660, -0.007, -0.002, 0.998, 0.305, 0.244, 0, -0.132, 0.203, -103.777, -44.394, -10.878, -23.912,, 0.61713, 0.00064, 0.00183, -0.78677,
 15:10:55.797,d3:c7:8d:a5:a9:b5, 2015-01-01 00:06:23.660, -0.007, 0, 0.999, 0.305, 0.305, 0, -0.126, 0.203, -103.777, -44.394, -10.878, -23.912,, 0.61713, 0.00064, 0.00183, -0.78677,
 15:10:55.797,d3:c7:8d:a5:a9:b5, 2015-01-01 00:06:23.660, -0.007, 0, 0.999, 0.305, 0.305, 0, -0.121, 0.209, -103.777, -44.394, -10.878, -23.912,, 0.61713, 0.00064, 0.00183, -0.78677,
 15:10:55.797,d3:c7:8d:a5:a9:b5, 2015-01-01 00:06:23.660, -0.007, -0.001, 0.997, 0.122, 0, 0, -0.121, 0.209, -103.777, -44.394, -10.878, -23.912,, 0.61713, 0.00064, 0.00183, -0.78677,
 15:10:55.827,d3:c7:8d:a5:a9:b5, 2015-01-01 00:06:23.660, -0.005, -0.001, 0.997, 0.122, 0, 0, -0.121, 0.209, -103.777, -44.394, -10.878, -23.912,, 0.61713, 0.00064, 0.00183, -0.78677,
 15:10:55.827,d3:c7:8d:a5:a9:b5, 2015-01-01 00:06:23.660, -0.005, -0.001, 0.999, -0.122, 0, 0, -0.121, 0.209, -103.777, -44.394, -10.878, -23.912,, 0.61713, 0.00064, 0.00183, -0.78677,
 15:10:55.827,d3:c7:8d:a5:a9:b5, 2015-01-01 00:06:23.660, -0.005, -0.001, 0.999, -0.122, 0, 0, -0.121, 0.209, -103.777, -44.394, -10.878, -23.912,, 0.61713, 0.00064, 0.00183, -0.78677,
 15:10:55.827,d3:c7:8d:a5:a9:b5, 2015-01-01 00:06:23.660, -0.005, -0.002, 0.999, 0, 0, 0, -0.121, 0.209, -103.777, -44.394, -10.878, -23.912,, 0.61713, 0.00064, 0.00183, -0.78677,
 15:10:55.889,d3:c7:8d:a5:a9:b5, 2015-01-01 00:06:23.660, -0.005, -0.002, 0.999, 0, 0, 0, -0.121, 0.209, -103.777, -44.394, -10.878, -23.912,, 0.61713, 0.00076, 0.00198, -0.78677,
 15:10:55.889,d3:c7:8d:a5:a9:b5, 2015-01-01 00:06:23.660, -0.005, 0, 0.999, 0, 0.122, 0, -0.121, 0.209, -103.777, -44.394, -10.878, -23.912,, 0.61713, 0.00076, 0.00198, -0.78677,
 15:10:55.889,d3:c7:8d:a5:a9:b5, 2015-01-01 00:06:23.660, -0.004, 0, 0.999, 0, 0.122, 0, -0.121, 0.214, -103.777, -44.394, -10.878, -23.912,, 0.61713, 0.00076, 0.00198, -0.78677,
 15:10:55.889,d3:c7:8d:a5:a9:b5, 2015-01-01 00:06:23.660, -0.004, 0, 0.999, -0.122, 0, 0, -0.121, 0.214, -103.777, -44.394, -10.878, -23.912,, 0.61713, 0.00076, 0.00198, -0.78677,
 15:10:55.917,d3:c7:8d:a5:a9:b5, 2015-01-01 00:06:24.045, -0.004, 0, 0.999, -0.122, 0, 0, -0.126, 0.214, -103.777, -44.394, -10.878, -23.912,, 0.61713, 0.00076, 0.00198, -0.78677,
 15:10:55.917,d3:c7:8d:a5:a9:b5, 2015-01-01 00:06:24.045, -0.004, -0.002, 0.999, -0.305, 0.061, 0, -0.126, 0.214, -103.777, -44.394, -10.878, -23.912,, 0.61713, 0.00076, 0.00198, -0.78677,
 15:10:55.917,d3:c7:8d:a5:a9:b5, 2015-01-01 00:06:24.045, -0.002, -0.002, 0.999, -0.305, 0.061, 0, -0.132, 0.214, -103.777, -44.394, -10.878, -23.912,, 0.61713, 0.00076, 0.00198, -0.78677,
 15:10:55.917,d3:c7:8d:a5:a9:b5, 2015-01-01 00:06:24.045, -0.002, -0.003, 1, -0.061, 0.061, 0, -0.132, 0.214, -103.777, -44.394, -10.878, -23.912,, 0.61713, 0.00076, 0.00198, -0.78677,
 15:10:55.947,d3:c7:8d:a5:a9:b5, 2015-01-01 00:06:24.045, -0.001, -0.003, 1, -0.061, 0.061, 0, -0.132, 0.214, -103.777, -44.394, -10.878, -23.912,, 0.61713, 0.00076, 0.00198, -0.78677,
 15:10:55.947,d3:c7:8d:a5:a9:b5, 2015-01-01 00:06:24.045, -0.001, -0.002, 0.999, 0.122, 0.183, 0, -0.126, 0.22, -103.777, -44.394, -10.878, -23.912,, 0.61713, 0.00076, 0.00198, -0.78677,
 15:10:55.947,d3:c7:8d:a5:a9:b5, 2015-01-01 00:06:24.045, -0.003, -0.002, 0.999, 0.122, 0.183, 0, -0.126, 0.22, -103.777, -44.394, -10.878, -23.912,, 0.61713, 0.00076, 0.00198, -0.78677,
 15:10:55.947,d3:c7:8d:a5:a9:b5, 2015-01-01 00:06:24.045, -0.003, -0.001, 0.998, -0.183, 0.305, 0, -0.132, 0.225, -103.777, -44.394, -10.878, -23.912,, 0.61713, 0.00076, 0.00198, -0.78677,
 15:10:56.007,d3:c7:8d:a5:a9:b5, 2015-01-01 00:06:24.045, -0.005, -0.001, 0.998, -0.183, 0.305, 0, -0.132, 0.225, -103.777, -44.394, -10.878, -23.912,, 0.61713, 0.00076, 0.00198, -0.78677,
 15:10:56.007,d3:c7:8d:a5:a9:b5, 2015-01-01 00:06:24.045, -0.005, -0.004, 0.999, -0.366, 0.183, 0, -0.137, 0.231, -103.777, -44.394, -10.878, -23.912,, 0.61713, 0.00076, 0.00198, -0.78677,
 15:10:56.007,d3:c7:8d:a5:a9:b5, 2015-01-01 00:06:24.045, -0.002, -0.004, 0.999, -0.366, 0.183, 0, -0.137, 0.231, -103.777, -44.394, -10.878, -23.912,, 0.61713, 0.00076, 0.00198, -0.78677,
 15:10:56.007,d3:c7:8d:a5:a9:b5, 2015-01-01 00:06:24.045, -0.002, -0.005, 0.998, -0.183, 0, 0, -0.143, 0.231, -103.777, -44.394, -10.878, -23.912,, 0.61713, 0.00076, 0.00198, -0.78677,
 15:10:56.037,d3:c7:8d:a5:a9:b5, 2015-01-01 00:06:24.045, 0, -0.005, 0.998, -0.183, 0, 0, -0.143, 0.231, -103.777, -44.394, -10.878, -23.912,, 0.61713, 0.00076, 0.00198, -0.78677,
 15:10:56.037,d3:c7:8d:a5:a9:b5, 2015-01-01 00:06:24.045, -0.008, -0.001, 1, 0.244, 0.305, 0, -0.137, 0.231, -103.777, -44.394, -10.878, -23.912,, 0.61713, 0.00076, 0.00198, -0.78677,
 15:10:56.037,d3:c7:8d:a5:a9:b5, 2015-01-01 00:06:24.045, -0.008, 0, 1, 0.427, 0.549, 0, -0.137, 0.236, -103.777, -44.394, -10.878, -23.912,, 0.61713, 0.00076, 0.00198, -0.78677,
 15:10:56.037,d3:c7:8d:a5:a9:b5, 2015-01-01 00:06:24.045, -0.011, 0, 1, 0.427, 0.549, 0, -0.132, 0.242, -103.777, -44.394, -10.878, -23.912,, 0.61713, 0.00076, 0.00198, -0.78677,
 15:10:56.068,d3:c7:8d:a5:a9:b5, 2015-01-01 00:06:24.045, -0.011, 0.003, 0.997, 0, 0.244, 0, -0.132, 0.247, -103.777, -44.394, -10.878, -23.912,, 0.61713, 0.00076, 0.00198, -0.78677,
 15:10:56.068,d3:c7:8d:a5:a9:b5, 2015-01-01 00:06:24.045, -0.011, 0.003, 0.997, 0, 0.244, 0, -0.132, 0.247, -103.777, -44.394, -10.878, -23.912,, 0.61713, 0.00076, 0.00198, -0.78677,
 15:10:56.068,d3:c7:8d:a5:a9:b5, 2015-01-01 00:06:24.045, -0.011, -0.004, 0.998, -0.793, -0.183, 0, -0.132, 0.247, -103.777, -44.394, -10.878, -23.912,, 0.61713, 0.00076, 0.00198, -0.78677,
 15:10:56.068,d3:c7:8d:a5:a9:b5, 2015-01-01 00:06:24.045, -0.005, -0.004, 0.998, -0.793, -0.183, 0, -0.143, 0.247, -103.777, -44.394, -10.878, -23.912,, 0.61713, 0.00076, 0.00198, -0.78677,
 15:10:56.127,d3:c7:8d:a5:a9:b5, 2015-01-01 00:06:24.045, -0.005, -0.008, 0.998, -0.122, -0.488, 0, -0.143, 0.247, -103.777, -44.394, -10.878, -23.912,, 0.61713, 0.00076, 0.00198, -0.78677,
 15:10:56.127,d3:c7:8d:a5:a9:b5, 2015-01-01 00:06:24.045, 0.001, -0.008, 0.998, -0.122, -0.488, 0, -0.148, 0.242, -103.777, -44.394, -10.878, -23.912,, 0.61713, 0.00076, 0.00198, -0.78677,
 15:10:56.127,d3:c7:8d:a5:a9:b5, 2015-01-01 00:06:24.045, 0.001, -0.002, 1, 0.305, -0.122, 0, -0.143, 0.242, -103.777, -44.394, -10.878, -23.912,, 0.61713, 0.00076, 0.00198, -0.78677,
 15:10:56.127,d3:c7:8d:a5:a9:b5, 2015-01-01 00:06:24.045, -0.002, -0.002, 1, 0.305, -0.122, 0, -0.143, 0.236, -103.777, -44.394, -10.878, -23.912,, 0.61713, 0.00076, 0.00198, -0.78677,
 15:10:56.156,d3:c7:8d:a5:a9:b5, 2015-01-01 00:06:24.045, -0.002, 0, 1, 0.244, 0.061, 0, -0.137, 0.236, -103.777, -44.394, -10.878, -23.814,, 0.61713, 0.00076, 0.00198, -0.78677,
 15:10:56.156,d3:c7:8d:a5:a9:b5, 2015-01-01 00:06:24.045, -0.002, 0, 1, 0.244, 0.061, 0, -0.137, 0.236, -103.777, -44.394, -10.878, -23.814,, 0.61713, 0.00076, 0.00198, -0.78677,
 15:10:56.156,d3:c7:8d:a5:a9:b5, 2015-01-01 00:06:24.045, -0.002, 0, 1, 0.122, 0, 0, -0.137, 0.242, -103.777, -44.394, -10.878, -23.814,, 0.61713, 0.00076, 0.00198, -0.78677,
 15:10:56.157,d3:c7:8d:a5:a9:b5, 2015-01-01 00:06:24.045, -0.004, 0, 1, 0.122, 0, 0, -0.132, 0.242, -103.777, -44.394, -10.878, -23.814,, 0.61713, 0.00076, 0.00198, -0.78677,
 15:10:56.189,d3:c7:8d:a5:a9:b5, 2015-01-01 00:06:24.045, -0.004, -0.002, 0.997, -0.305, 0, 0, -0.137, 0.242, -103.777, -44.394, -10.878, -23.814,, 0.61713, 0.00076, 0.00198, -0.78677,
 15:10:56.190,d3:c7:8d:a5:a9:b5, 2015-01-01 00:06:24.045, -0.003, -0.002, 0.997, -0.305, 0, 0, -0.137, 0.242, -103.777, -44.394, -10.878, -23.814,, 0.61713, 0.00076, 0.00198, -0.78677,
 15:10:56.190,d3:c7:8d:a5:a9:b5, 2015-01-01 00:06:24.045, -0.003, -0.004, 0.999, 0, -0.061, 0, -0.137, 0.242, -103.777, -44.394, -10.878, -23.814,, 0.61713, 0.00076, 0.00198, -0.78677,
 15:10:56.190,d3:c7:8d:a5:a9:b5, 2015-01-01 00:06:24.045, -0.001, -0.004, 0.999, 0, -0.061, 0, -0.137, 0.236, -103.777, -44.394, -10.878, -23.814,, 0.61713, 0.00076, 0.00198, -0.78677,
 15:10:56.248,d3:c7:8d:a5:a9:b5, 2015-01-01 00:06:24.045, -0.001, 0, 1, 0.183, 0.122, 0, -0.137, 0.236, -103.777, -44.394, -10.878, -23.814,, 0.61713, 0.00089, 0.00226, -0.78677,
 15:10:56.248,d3:c7:8d:a5:a9:b5, 2015-01-01 00:06:24.045, -0.002, 0, 1, 0.183, 0.122, 0, -0.137, 0.242, -103.777, -44.394, -10.878, -23.814,, 0.61713, 0.00089, 0.00226, -0.78677,
 15:10:56.248,d3:c7:8d:a5:a9:b5, 2015-01-01 00:06:24.045, -0.002, 0.001, 0.999, -0.061, 0.488, 0, -0.137, 0.242, -103.777, -44.394, -10.878, -23.814,, 0.61713, 0.00089, 0.00226, -0.78677,
 15:10:56.248,d3:c7:8d:a5:a9:b5, 2015-01-01 00:06:24.045, -0.013, 0.001, 0.999, -0.061, 0.488, 0, -0.137, 0.247, -103.777, -44.394, -10.878, -23.814,, 0.61713, 0.00089, 0.00226, -0.78677,
 15:10:56.277,d3:c7:8d:a5:a9:b5, 2015-01-01 00:06:24.400, -0.013, -0.002, 0.998, -0.61, 0.488, 0, -0.137, 0.253, -103.777, -44.394, -10.878, -23.814,, 0.61713, 0.00089, 0.00226, -0.78677,
 15:10:56.277,d3:c7:8d:a5:a9:b5, 2015-01-01 00:06:24.400, -0.013, -0.002, 0.998, -0.61, 0.488, 0, -0.143, 0.258, -103.777, -44.394, -10.878, -23.814,, 0.61713, 0.00089, 0.00226, -0.78677,
 15:10:56.277,d3:c7:8d:a5:a9:b5, 2015-01-01 00:06:24.400, -0.013, -0.007, 0.996, -0.305, 0.061, 0, -0.148, 0.258, -103.777, -44.394, -10.878, -23.814,, 0.61713, 0.00089, 0.00226, -0.78677,
 15:10:56.277,d3:c7:8d:a5:a9:b5, 2015-01-01 00:06:24.400, -0.005, -0.007, 0.996, -0.305, 0.061, 0, -0.154, 0.264, -103.777, -44.394, -10.878, -23.814,, 0.61713, 0.00089, 0.00226, -0.78677,
 15:10:56.307,d3:c7:8d:a5:a9:b5, 2015-01-01 00:06:24.400, -0.005, -0.004, 0.998, 0.061, 0, 0, -0.154, 0.264, -103.777, -44.394, -10.878, -23.814,, 0.61713, 0.00089, 0.00226, -0.78677,
 15:10:56.307,d3:c7:8d:a5:a9:b5, 2015-01-01 00:06:24.400, -0.002, -0.004, 0.998, 0.061, 0, 0, -0.154, 0.264, -103.777, -44.394, -10.878, -23.814,, 0.61713, 0.00089, 0.00226, -0.78677,
 15:10:56.307,d3:c7:8d:a5:a9:b5, 2015-01-01 00:06:24.400, -0.002, 0, 1, -0.061, 0.122, 0, -0.154, 0.264, -103.777, -44.394, -10.878, -23.814,, 0.61713, 0.00089, 0.00226, -0.78677,
 15:10:56.307,d3:c7:8d:a5:a9:b5, 2015-01-01 00:06:24.400, -0.003, 0, 1, -0.061, 0.122, 0, -0.154, 0.264, -103.777, -44.394, -10.878, -23.814,, 0.61713, 0.00089, 0.00226, -0.78677,
 15:10:56.366,d3:c7:8d:a5:a9:b5, 2015-01-01 00:06:24.400, -0.003, -0.001, 0.999, -0.183, 0.183, 0, -0.154, 0.269, -103.777, -44.394, -10.878, -23.814,, 0.61713, 0.00089, 0.00226, -0.78677,
 15:10:56.366,d3:c7:8d:a5:a9:b5, 2015-01-01 00:06:24.400, -0.006, -0.001, 0.999, -0.183, 0.183, 0, -0.154, 0.269, -103.777, -44.394, -10.878, -23.814,, 0.61713, 0.00089, 0.00226, -0.78677,
 15:10:56.366,d3:c7:8d:a5:a9:b5, 2015-01-01 00:06:24.400, -0.006, -0.002, 0.999, -0.427, 0.061, 0, -0.159, 0.269, -103.777, -44.394, -10.878, -23.814,, 0.61713, 0.00089, 0.00226, -0.78677,
 15:10:56.366,d3:c7:8d:a5:a9:b5, 2015-01-01 00:06:24.400, -0.004, -0.002, 0.999, -0.427, 0.061, 0, -0.165, 0.269, -103.777, -44.394, -10.878, -23.814,, 0.61713, 0.00089, 0.00226, -0.78677,
 15:10:56.397,d3:c7:8d:a5:a9:b5, 2015-01-01 00:06:24.400, -0.004, -0.006, 0.999, -0.244, -0.305, 0, -0.165, 0.269, -103.777, -44.394, -10.878, -23.814,, 0.61713, 0.00089, 0.00226, -0.78677,
 15:10:56.397,d3:c7:8d:a5:a9:b5, 2015-01-01 00:06:24.400, -0.001, -0.006, 0.999, -0.244, -0.305, 0, -0.17, 0.269, -103.777, -44.394, -10.878, -23.814,, 0.61713, 0.00089, 0.00226, -0.78677,
 15:10:56.397,d3:c7:8d:a5:a9:b5, 2015-01-01 00:06:24.400, -0.001, -0.004, 1, 0.305, -0.061, 0, -0.165, 0.264, -103.777, -44.394, -10.878, -23.814,, 0.61713, 0.00089, 0.00226, -0.78677,
 15:10:56.397,d3:c7:8d:a5:a9:b5, 2015-01-01 00:06:24.400, -0.004, -0.004, 1, 0.305, -0.061, 0, -0.165, 0.264, -103.777, -44.394, -10.878, -23.814,, 0.61713, 0.00089, 0.00226, -0.78677,
 15:10:56.427,d3:c7:8d:a5:a9:b5, 2015-01-01 00:06:24.400, -0.004, 0, 1, 0.061, 0.183, 0, -0.165, 0.264, -103.777, -44.394, -10.878, -23.814,, 0.61713, 0.00089, 0.00226, -0.78677,
 15:10:56.427,d3:c7:8d:a5:a9:b5, 2015-01-01 00:06:24.400, -0.01, 0, 1, 0.061, 0.183, 0, -0.165, 0.269, -103.777, -44.394, -10.878, -23.814,, 0.61713, 0.00089, 0.00226, -0.78677,
 15:10:56.427,d3:c7:8d:a5:a9:b5, 2015-01-01 00:06:24.400, -0.01, -0.003, 0.997, 0.061, 0.183, 0, -0.159, 0.269, -103.777, -44.394, -10.878, -23.814,, 0.61713, 0.00089, 0.00226, -0.78677,
 15:10:56.427,d3:c7:8d:a5:a9:b5, 2015-01-01 00:06:24.400, -0.011, -0.003, 0.997, 0.061, 0.183, 0, -0.159, 0.269, -103.777, -44.394, -10.878, -23.814,, 0.61713, 0.00089, 0.00226, -0.78677,
 15:10:56.487,d3:c7:8d:a5:a9:b5, 2015-01-01 00:06:24.400, -0.011, 0, 0.998, 0, -0.122, 0, -0.159, 0.269, -103.777, -44.394, -10.878, -23.814,, 0.61713, 0.00089, 0.00226, -0.78677,
 15:10:56.487,d3:c7:8d:a5:a9:b5, 2015-01-01 00:06:24.400, -0.006, 0, 0.998, 0, -0.122, 0, -0.159, 0.269, -103.777, -44.394, -10.878, -23.814,, 0.61713, 0.00089, 0.00226, -0.78677,
 15:10:56.487,d3:c7:8d:a5:a9:b5, 2015-01-01 00:06:24.400, -0.006, -0.002, 0.998, -0.427, -0.305, 0, -0.165, 0.269, -103.777, -44.394, -10.878, -23.814,, 0.61713, 0.00089, 0.00226, -0.78677,
 15:10:56.487,d3:c7:8d:a5:a9:b5, 2015-01-01 00:06:24.400, -0.003, -0.002, 0.998, -0.427, -0.305, 0, -0.17, 0.264, -103.777, -44.394, -10.878, -23.814,, 0.61713, 0.00089, 0.00226, -0.78677,
 15:10:56.517,d3:c7:8d:a5:a9:b5, 2015-01-01 00:06:24.400, -0.003, -0.006, 0.999, -0.122, -0.183, 0, -0.17, 0.264, -103.777, -44.394, -10.780, -23.814,, 0.61713, 0.00089, 0.00226, -0.78677,
 15:10:56.517,d3:c7:8d:a5:a9:b5, 2015-01-01 00:06:24.400, 0, -0.006, 0.999, -0.122, -0.183, 0, -0.17, 0.264, -103.777, -44.394, -10.780, -23.814,, 0.61713, 0.00089, 0.00226, -0.78677,
 15:10:56.517,d3:c7:8d:a5:a9:b5, 2015-01-01 00:06:24.400, 0, -0.004, 1, 0.427, 0, 0, -0.165, 0.264, -103.777, -44.394, -10.780, -23.814,, 0.61713, 0.00089, 0.00226, -0.78677,
 15:10:56.518,d3:c7:8d:a5:a9:b5, 2015-01-01 00:06:24.400, 0, -0.004, 1, 0.427, 0, 0, -0.165, 0.264, -103.777, -44.394, -10.780, -23.814,, 0.61713, 0.00089, 0.00226, -0.78677,
 15:10:56.547,d3:c7:8d:a5:a9:b5, 2015-01-01 00:06:24.400, 0, 0, 0.999, 0.366, 0.122, 0, -0.159, 0.264, -103.777, -44.394, -10.780, -23.814,, 0.61713, 0.00089, 0.00226, -0.78677,
 15:10:56.547,d3:c7:8d:a5:a9:b5, 2015-01-01 00:06:24.400, -0.008, 0, 0.999, 0.366, 0.122, 0, -0.154, 0.264, -103.777, -44.394, -10.780, -23.814,, 0.61713, 0.00089, 0.00226, -0.78677,
 15:10:56.547,d3:c7:8d:a5:a9:b5, 2015-01-01 00:06:24.400, -0.008, -0.001, 0.998, 0, 0.061, 0, -0.154, 0.269, -103.777, -44.394, -10.780, -23.814,, 0.61713, 0.00089, 0.00226, -0.78677,
 15:10:56.547,d3:c7:8d:a5:a9:b5, 2015-01-01 00:06:24.400, -0.009, -0.001, 0.998, 0, 0.061, 0, -0.154, 0.269, -103.777, -44.394, -10.780, -23.814,, 0.61713, 0.00089, 0.00226, -0.78677,
 15:10:56.607,d3:c7:8d:a5:a9:b5, 2015-01-01 00:06:24.400, -0.009, -0.002, 0.998, -0.244, -0.183, 0, -0.159, 0.264, -103.777, -44.394, -10.780, -23.814,, 0.61713, 0.00098, 0.00253, -0.78677,
 15:10:56.607,d3:c7:8d:a5:a9:b5, 2015-01-01 00:06:24.400, -0.004, -0.002, 0.998, -0.244, -0.183, 0, -0.159, 0.264, -103.777, -44.394, -10.780, -23.814,, 0.61713, 0.00098, 0.00253, -0.78677,
 15:10:56.607,d3:c7:8d:a5:a9:b5, 2015-01-01 00:06:24.400, -0.004, -0.002, 1, -0.122, -0.122, 0, -0.159, 0.264, -103.777, -44.394, -10.780, -23.814,, 0.61713, 0.00098, 0.00253, -0.78677,
 15:10:56.607,d3:c7:8d:a5:a9:b5, 2015-01-01 00:06:24.400, -0.002, -0.002, 1, -0.122, -0.122, 0, -0.165, 0.264, -103.777, -44.394, -10.780, -23.814,, 0.61713, 0.00098, 0.00253, -0.78677,
 15:10:56.668,d3:c7:8d:a5:a9:b5, 2015-01-01 00:06:24.760, -0.002, 0, 1, 0, 0.061, 0, -0.165, 0.264, -103.777, -44.394, -10.780, -23.814,, 0.61713, 0.00098, 0.00253, -0.78677,
 15:10:56.668,d3:c7:8d:a5:a9:b5, 2015-01-01 00:06:24.760, -0.005, 0, 1, 0, 0.061, 0, -0.165, 0.264, -103.777, -44.394, -10.780, -23.814,, 0.61713, 0.00098, 0.00253, -0.78677,
 15:10:56.668,d3:c7:8d:a5:a9:b5, 2015-01-01 00:06:24.760, -0.005, -0.002, 0.997, -0.305, 0.244, 0, -0.165, 0.264, -103.777, -44.394, -10.780, -23.814,, 0.61713, 0.00098, 0.00253, -0.78677,
 15:10:56.669,d3:c7:8d:a5:a9:b5, 2015-01-01 00:06:24.760, -0.01, -0.002, 0.997, -0.305, 0.244, 0, -0.17, 0.269, -103.777, -44.394, -10.780, -23.814,, 0.61713, 0.00098, 0.00253, -0.78677,
 15:10:56.669,d3:c7:8d:a5:a9:b5, 2015-01-01 00:06:24.760, -0.01, -0.007, 0.998, 0, 0, 0, -0.17, 0.269, -103.777, -44.394, -10.780, -23.814,, 0.61713, 0.00098, 0.00253, -0.78677,
 15:10:56.669,d3:c7:8d:a5:a9:b5, 2015-01-01 00:06:24.760, -0.006, -0.007, 0.998, 0, 0, 0, -0.17, 0.269, -103.777, -44.394, -10.780, -23.814,, 0.61713, 0.00098, 0.00253, -0.78677,
 15:10:56.669,d3:c7:8d:a5:a9:b5, 2015-01-01 00:06:24.760, -0.006, -0.003, 0.999, 0.488, -0.244, 0, -0.165, 0.269, -103.777, -44.394, -10.780, -23.814,, 0.61713, 0.00098, 0.00253, -0.78677,
 15:10:56.669,d3:c7:8d:a5:a9:b5, 2015-01-01 00:06:24.760, -0.002, -0.003, 0.999, 0.488, -0.244, 0, -0.159, 0.264, -103.777, -44.394, -10.780, -23.814,, 0.61713, 0.00098, 0.00253, -0.78677,
 15:10:56.727,d3:c7:8d:a5:a9:b5, 2015-01-01 00:06:24.760, -0.002, 0.001, 1, 0.183, -0.122, 0, -0.159, 0.264, -103.777, -44.394, -10.780, -23.814,, 0.61713, 0.00098, 0.00253, -0.78677,
 15:10:56.727,d3:c7:8d:a5:a9:b5, 2015-01-01 00:06:24.760, -0.005, 0.001, 1, 0.183, -0.122, 0, -0.154, 0.264, -103.777, -44.394, -10.780, -23.814,, 0.61713, 0.00098, 0.00253, -0.78677,
 15:10:56.727,d3:c7:8d:a5:a9:b5, 2015-01-01 00:06:24.760, -0.005, -0.001, 1, -0.244, -0.061, 0, -0.159, 0.264, -103.777, -44.394, -10.780, -23.814,, 0.61713, 0.00098, 0.00253, -0.78677,
 15:10:56.727,d3:c7:8d:a5:a9:b5, 2015-01-01 00:06:24.760, -0.005, -0.001, 1, -0.244, -0.061, 0, -0.159, 0.264, -103.777, -44.394, -10.780, -23.814,, 0.61713, 0.00098, 0.00253, -0.78677,
 15:10:56.757,d3:c7:8d:a5:a9:b5, 2015-01-01 00:06:24.760, -0.005, -0.004, 0.998, -0.183, -0.061, 0, -0.159, 0.264, -103.777, -44.394, -10.780, -23.814,, 0.61713, 0.00098, 0.00253, -0.78677,
 15:10:56.757,d3:c7:8d:a5:a9:b5, 2015-01-01 00:06:24.760, -0.003, -0.004, 0.998, -0.183, -0.061, 0, -0.165, 0.264, -103.777, -44.394, -10.780, -23.814,, 0.61713, 0.00098, 0.00253, -0.78677,
 15:10:56.757,d3:c7:8d:a5:a9:b5, 2015-01-01 00:06:24.760, -0.003, -0.003, 1, 0, 0, 0, -0.165, 0.264, -103.777, -44.394, -10.780, -23.814,, 0.61713, 0.00098, 0.00253, -0.78677,
 15:10:56.757,d3:c7:8d:a5:a9:b5, 2015-01-01 00:06:24.760, -0.004, -0.003, 1, 0, 0, 0, -0.165, 0.264, -103.777, -44.394, -10.780, -23.814,, 0.61713, 0.00098, 0.00253, -0.78677,
 15:10:56.788,d3:c7:8d:a5:a9:b5, 2015-01-01 00:06:24.760, -0.004, -0.003, 0.998, 0.061, 0.122, 0, -0.165, 0.264, -103.777, -44.394, -10.780, -23.814,, 0.61713, 0.00098, 0.00253, -0.78677,
 15:10:56.788,d3:c7:8d:a5:a9:b5, 2015-01-01 00:06:24.760, -0.004, -0.003, 0.998, 0.061, 0.122, 0, -0.165, 0.264, -103.777, -44.394, -10.780, -23.814,, 0.61713, 0.00098, 0.00253, -0.78677,
 15:10:56.788,d3:c7:8d:a5:a9:b5, 2015-01-01 00:06:24.760, -0.004, -0.003, 1, 0.244, 0, 0, -0.159, 0.264, -103.777, -44.394, -10.780, -23.814,, 0.61713, 0.00098, 0.00253, -0.78677,
 15:10:56.788,d3:c7:8d:a5:a9:b5, 2015-01-01 00:06:24.760, -0.005, -0.003, 1, 0.244, 0, 0, -0.159, 0.264, -103.777, -44.394, -10.780, -23.814,, 0.61713, 0.00098, 0.00253, -0.78677,
 15:10:56.847,d3:c7:8d:a5:a9:b5, 2015-01-01 00:06:24.760, -0.005, -0.003, 0.998, 0.305, 0.061, 0, -0.154, 0.264, -103.777, -44.394, -10.780, -23.814,, 0.61713, 0.00098, 0.00253, -0.78677,
 15:10:56.847,d3:c7:8d:a5:a9:b5, 2015-01-01 00:06:24.760, -0.006, -0.003, 0.998, 0.305, 0.061, 0, -0.154, 0.264, -103.777, -44.394, -10.780, -23.814,, 0.61713, 0.00098, 0.00253, -0.78677,
 15:10:56.847,d3:c7:8d:a5:a9:b5, 2015-01-01 00:06:24.760, -0.006, -0.001, 0.998, 0.305, 0, 0, -0.148, 0.269, -103.777, -44.394, -10.780, -23.814,, 0.61713, 0.00098, 0.00253, -0.78677,
 15:10:56.847,d3:c7:8d:a5:a9:b5, 2015-01-01 00:06:24.760, -0.01, -0.001, 0.998, 0.305, 0, 0, -0.148, 0.269, -103.777, -44.394, -10.780, -23.814,, 0.61713, 0.00098, 0.00253, -0.78677,
 15:10:56.877,d3:c7:8d:a5:a9:b5, 2015-01-01 00:06:24.760, -0.01, -0.001, 0.999, 0.061, -0.061, 0, -0.143, 0.264, -103.777, -44.394, -10.780, -23.912,, 0.61713, 0.00098, 0.00253, -0.78677,
 15:10:56.877,d3:c7:8d:a5:a9:b5, 2015-01-01 00:06:24.760, -0.005, -0.001, 0.999, 0.061, -0.061, 0, -0.143, 0.264, -103.777, -44.394, -10.780, -23.912,, 0.61713, 0.00098, 0.00253, -0.78677,
 15:10:56.877,d3:c7:8d:a5:a9:b5, 2015-01-01 00:06:24.760, -0.005, 0, 0.998, 0, -0.183, 0, -0.143, 0.264, -103.777, -44.394, -10.780, -23.912,, 0.61713, 0.00098, 0.00253, -0.78677,
 15:10:56.877,d3:c7:8d:a5:a9:b5, 2015-01-01 00:06:24.760, -0.004, 0, 0.998, 0, -0.183, 0, -0.143, 0.264, -103.777, -44.394, -10.780, -23.912,, 0.61713, 0.00098, 0.00253, -0.78677,
 15:10:56.937,d3:c7:8d:a5:a9:b5, 2015-01-01 00:06:24.760, -0.004, -0.002, 1, -0.183, 0, 0, -0.148, 0.264, -103.777, -44.394, -10.780, -23.912,, 0.61713, 0.00098, 0.00253, -0.78677,
 15:10:56.937,d3:c7:8d:a5:a9:b5, 2015-01-01 00:06:24.760, -0.002, -0.002, 1, -0.183, 0, 0, -0.148, 0.264, -103.777, -44.394, -10.780, -23.912,, 0.61713, 0.00098, 0.00253, -0.78677,
 15:10:56.937,d3:c7:8d:a5:a9:b5, 2015-01-01 00:06:24.760, -0.006, -0.004, 0.999, 0, 0.061, 0, -0.148, 0.264, -103.777, -44.394, -10.780, -23.912,, 0.61713, 0.00098, 0.00253, -0.78677,
 15:10:56.937,d3:c7:8d:a5:a9:b5, 2015-01-01 00:06:24.760, -0.006, -0.004, 0.999, 0.305, 0, 0, -0.148, 0.264, -103.777, -44.394, -10.780, -23.912,, 0.61713, 0.00098, 0.00253, -0.78677,
 15:10:56.967,d3:c7:8d:a5:a9:b5, 2015-01-01 00:06:24.760, -0.004, -0.004, 0.999, 0.305, 0, 0, -0.143, 0.264, -103.777, -44.394, -10.780, -23.912,, 0.61713, 0.00101, 0.00247, -0.78677,
 15:10:56.967,d3:c7:8d:a5:a9:b5, 2015-01-01 00:06:24.760, -0.004, 0, 0.999, 0.427, 0, 0, -0.137, 0.264, -103.777, -44.394, -10.780, -23.912,, 0.61713, 0.00101, 0.00247, -0.78677,
 15:10:56.967,d3:c7:8d:a5:a9:b5, 2015-01-01 00:06:24.760, -0.006, 0, 0.999, 0.427, 0, 0, -0.137, 0.264, -103.777, -44.394, -10.780, -23.912,, 0.61713, 0.00101, 0.00247, -0.78677,
 15:10:56.967,d3:c7:8d:a5:a9:b5, 2015-01-01 00:06:24.760, -0.006, 0, 0.999, 0, -0.061, 0, -0.132, 0.264, -103.777, -44.394, -10.780, -23.912,, 0.61713, 0.00101, 0.00247, -0.78677,
 15:10:56.997,d3:c7:8d:a5:a9:b5, 2015-01-01 00:06:24.760, -0.005, 0, 0.999, 0, -0.061, 0, -0.132, 0.264, -103.777, -44.394, -10.780, -23.912,, 0.61713, 0.00101, 0.00247, -0.78677,
 15:10:56.997,d3:c7:8d:a5:a9:b5, 2015-01-01 00:06:24.760, -0.005, -0.003, 0.999, -0.244, -0.061, 0, -0.132, 0.264, -103.777, -44.394, -10.780, -23.912,, 0.61713, 0.00101, 0.00247, -0.78677,
 15:10:56.997,d3:c7:8d:a5:a9:b5, 2015-01-01 00:06:24.760, -0.007, -0.003, 0.999, -0.244, -0.061, 0, -0.137, 0.264, -103.777, -44.394, -10.780, -23.912,, 0.61713, 0.00101, 0.00247, -0.78677,
 15:10:56.997,d3:c7:8d:a5:a9:b5, 2015-01-01 00:06:24.760, -0.007, -0.006, 0.998, 0.122, -0.122, 0, -0.137, 0.264, -103.777, -44.394, -10.780, -23.912,, 0.61713, 0.00101, 0.00247, -0.78677,
 15:10:57.058,d3:c7:8d:a5:a9:b5, 2015-01-01 00:06:25.145, -0.005, -0.006, 0.998, 0.122, -0.122, 0, -0.137, 0.264, -103.777, -44.394, -10.780, -23.912,, 0.61713, 0.00101, 0.00247, -0.78677,
 15:10:57.058,d3:c7:8d:a5:a9:b5, 2015-01-01 00:06:25.145, -0.005, -0.001, 0.999, 0.427, -0.061, 0, -0.132, 0.264, -103.777, -44.394, -10.780, -23.912,, 0.61713, 0.00101, 0.00247, -0.78677,
 15:10:57.058,d3:c7:8d:a5:a9:b5, 2015-01-01 00:06:25.145, -0.005, -0.001, 0.999, 0.427, -0.061, 0, -0.132, 0.264, -103.777, -44.394, -10.780, -23.912,, 0.61713, 0.00101, 0.00247, -0.78677,
 15:10:57.058,d3:c7:8d:a5:a9:b5, 2015-01-01 00:06:25.145, -0.005, 0.001, 0.999, 0.183, 0, 0, -0.126, 0.264, -103.777, -44.394, -10.780, -23.912,, 0.61713, 0.00101, 0.00247, -0.78677,
 15:10:57.088,d3:c7:8d:a5:a9:b5, 2015-01-01 00:06:25.145, -0.005, 0.001, 0.999, 0.183, 0, 0, -0.126, 0.264, -103.777, -44.394, -10.780, -23.912,, 0.61713, 0.00101, 0.00247, -0.78677,
 15:10:57.088,d3:c7:8d:a5:a9:b5, 2015-01-01 00:06:25.145, -0.005, -0.001, 0.997, 0, -0.122, 0, -0.126, 0.264, -103.777, -44.394, -10.780, -23.912,, 0.61713, 0.00101, 0.00247, -0.78677,
 15:10:57.088,d3:c7:8d:a5:a9:b5, 2015-01-01 00:06:25.145, -0.003, -0.001, 0.997, 0, -0.122, 0, -0.126, 0.264, -103.777, -44.394, -10.780, -23.912,, 0.61713, 0.00101, 0.00247, -0.78677,
 15:10:57.088,d3:c7:8d:a5:a9:b5, 2015-01-01 00:06:25.145, -0.003, -0.002, 0.999, 0, -0.183, 0, -0.126, 0.258, -103.777, -44.394, -10.780, -23.912,, 0.61713, 0.00101, 0.00247, -0.78677,
 15:10:57.118,d3:c7:8d:a5:a9:b5, 2015-01-01 00:06:25.145, -0.002, -0.002, 0.999, 0, -0.183, 0, -0.126, 0.258, -103.777, -44.394, -10.780, -23.912,, 0.61713, 0.00101, 0.00247, -0.78677,
 15:10:57.118,d3:c7:8d:a5:a9:b5, 2015-01-01 00:06:25.145, -0.002, -0.002, 1, 0, 0, 0, -0.126, 0.258, -103.777, -44.394, -10.780, -23.912,, 0.61713, 0.00101, 0.00247, -0.78677,
 15:10:57.118,d3:c7:8d:a5:a9:b5, 2015-01-01 00:06:25.145, -0.001, -0.002, 1, 0, 0, 0, -0.121, 0.258, -103.777, -44.394, -10.780, -23.912,, 0.61713, 0.00101, 0.00247, -0.78677,
 15:10:57.118,d3:c7:8d:a5:a9:b5, 2015-01-01 00:06:25.145, -0.001, 0, 0.999, 0.122, 0.122, 0, -0.121, 0.258, -103.777, -44.394, -10.780, -23.912,, 0.61713, 0.00101, 0.00247, -0.78677,
 15:10:57.178,d3:c7:8d:a5:a9:b5, 2015-01-01 00:06:25.145, -0.01, 0, 0.999, 0.122, 0.122, 0, -0.121, 0.258, -103.777, -44.394, -10.780, -23.912,, 0.61713, 0.00101, 0.00247, -0.78677,
 15:10:57.178,d3:c7:8d:a5:a9:b5, 2015-01-01 00:06:25.145, -0.01, -0.002, 1, 0, 0.244, 0, -0.121, 0.258, -103.777, -44.394, -10.780, -23.912,, 0.61713, 0.00101, 0.00247, -0.78677,
 15:10:57.178,d3:c7:8d:a5:a9:b5, 2015-01-01 00:06:25.145, -0.008, -0.002, 1, 0, 0.244, 0, -0.121, 0.264, -103.777, -44.394, -10.780, -23.912,, 0.61713, 0.00101, 0.00247, -0.78677,
 15:10:57.178,d3:c7:8d:a5:a9:b5, 2015-01-01 00:06:25.145, -0.008, -0.002, 0.997, 0, -0.122, 0, -0.121, 0.264, -103.777, -44.394, -10.780, -23.912,, 0.61713, 0.00101, 0.00247, -0.78677,
 15:10:57.208,d3:c7:8d:a5:a9:b5, 2015-01-01 00:06:25.145, -0.005, -0.002, 0.997, 0, -0.122, 0, -0.121, 0.264, -103.777, -44.394, -10.780, -23.912,, 0.61713, 0.00101, 0.00247, -0.78677,
 15:10:57.208,d3:c7:8d:a5:a9:b5, 2015-01-01 00:06:25.145, -0.005, -0.003, 1, -0.061, -0.244, 0, -0.121, 0.264, -103.777, -44.394, -10.780, -23.912,, 0.61713, 0.00101, 0.00247, -0.78677,
 15:10:57.208,d3:c7:8d:a5:a9:b5, 2015-01-01 00:06:25.145, -0.002, -0.003, 1, -0.061, -0.244, 0, -0.121, 0.258, -103.777, -44.394, -10.780, -23.912,, 0.61713, 0.00101, 0.00247, -0.78677,
 15:10:57.208,d3:c7:8d:a5:a9:b5, 2015-01-01 00:06:25.145, -0.002, -0.002, 1, 0.122, 0, 0, -0.121, 0.258, -103.777, -44.394, -10.780, -23.912,, 0.61713, 0.00101, 0.00247, -0.78677,
 15:10:57.237,d3:c7:8d:a5:a9:b5, 2015-01-01 00:06:25.145, -0.006, -0.002, 1, 0.122, 0, 0, -0.121, 0.258, -103.777, -44.394, -10.878, -23.912,, 0.61713, 0.00101, 0.00247, -0.78677,
 15:10:57.237,d3:c7:8d:a5:a9:b5, 2015-01-01 00:06:25.145, -0.006, -0.002, 0.999, 0.122, 0, 0, -0.121, 0.258, -103.777, -44.394, -10.878, -23.912,, 0.61713, 0.00101, 0.00247, -0.78677,
 15:10:57.237,d3:c7:8d:a5:a9:b5, 2015-01-01 00:06:25.145, -0.005, -0.002, 0.999, 0.122, 0, 0, -0.115, 0.258, -103.777, -44.394, -10.878, -23.912,, 0.61713, 0.00101, 0.00247, -0.78677,
 15:10:57.237,d3:c7:8d:a5:a9:b5, 2015-01-01 00:06:25.145, -0.005, -0.001, 1, 0.122, -0.122, 0, -0.115, 0.258, -103.777, -44.394, -10.878, -23.912,, 0.61713, 0.00101, 0.00247, -0.78677,
 15:10:57.297,d3:c7:8d:a5:a9:b5, 2015-01-01 00:06:25.145, -0.002, -0.001, 1, 0.122, -0.122, 0, -0.115, 0.258, -103.777, -44.394, -10.878, -23.912,, 0.61713, 0.00101, 0.00247, -0.78677,
 15:10:57.297,d3:c7:8d:a5:a9:b5, 2015-01-01 00:06:25.145, -0.002, 0, 0.999, -0.061, 0, 0, -0.115, 0.258, -103.777, -44.394, -10.878, -23.912,, 0.61713, 0.00101, 0.00247, -0.78677,
 15:10:57.297,d3:c7:8d:a5:a9:b5, 2015-01-01 00:06:25.145, -0.005, 0, 0.999, -0.061, 0, 0, -0.115, 0.258, -103.777, -44.394, -10.878, -23.912,, 0.61713, 0.00101, 0.00247, -0.78677,
 15:10:57.297,d3:c7:8d:a5:a9:b5, 2015-01-01 00:06:25.145, -0.005, -0.004, 1, 0.122, 0, 0, -0.115, 0.258, -103.777, -44.394, -10.878, -23.912,, 0.61713, 0.00101, 0.00247, -0.78677,
 15:10:57.328,d3:c7:8d:a5:a9:b5, 2015-01-01 00:06:25.145, -0.005, -0.004, 1, 0.122, 0, 0, -0.115, 0.258, -103.777, -44.394, -10.878, -23.912,, 0.61713, 0.00113, 0.0022, -0.78677,
 15:10:57.328,d3:c7:8d:a5:a9:b5, 2015-01-01 00:06:25.145, -0.005, 0, 0.999, 0.183, -0.122, 0, -0.115, 0.258, -103.777, -44.394, -10.878, -23.912,, 0.61713, 0.00113, 0.0022, -0.78677,
 15:10:57.328,d3:c7:8d:a5:a9:b5, 2015-01-01 00:06:25.145, -0.001, 0, 0.999, 0.183, -0.122, 0, -0.11, 0.258, -103.777, -44.394, -10.878, -23.912,, 0.61713, 0.00113, 0.0022, -0.78677,
 15:10:57.328,d3:c7:8d:a5:a9:b5, 2015-01-01 00:06:25.145, -0.001, 0.001, 0.999, -0.244, 0, 0, -0.11, 0.258, -103.777, -44.394, -10.878, -23.912,, 0.61713, 0.00113, 0.0022, -0.78677,
 15:10:57.357,d3:c7:8d:a5:a9:b5, 2015-01-01 00:06:25.145, -0.007, 0.001, 0.999, -0.244, 0, 0, -0.115, 0.258, -103.777, -44.394, -10.878, -23.912,, 0.61713, 0.00113, 0.0022, -0.78677,
 15:10:57.357,d3:c7:8d:a5:a9:b5, 2015-01-01 00:06:25.145, -0.007, -0.005, 0.999, -0.122, 0.183, 0, -0.115, 0.258, -103.777, -44.394, -10.878, -23.912,, 0.61713, 0.00113, 0.0022, -0.78677,
 15:10:57.357,d3:c7:8d:a5:a9:b5, 2015-01-01 00:06:25.145, -0.01, -0.005, 0.999, -0.122, 0.183, 0, -0.115, 0.258, -103.777, -44.394, -10.878, -23.912,, 0.61713, 0.00113, 0.0022, -0.78677,
 15:10:57.357,d3:c7:8d:a5:a9:b5, 2015-01-01 00:06:25.145, -0.01, -0.002, 0.998, 0.366, 0, 0, -0.115, 0.258, -103.777, -44.394, -10.878, -23.912,, 0.61713, 0.00113, 0.0022, -0.78677,
 15:10:57.419,d3:c7:8d:a5:a9:b5, 2015-01-01 00:06:25.505, -0.008, -0.002, 0.998, 0.366, 0, 0, -0.11, 0.258, -103.777, -44.394, -10.878, -23.912,, 0.61713, 0.00113, 0.0022, -0.78677,
 15:10:57.419,d3:c7:8d:a5:a9:b5, 2015-01-01 00:06:25.505, -0.008, -0.001, 1, 0.244, -0.183, 0, -0.11, 0.258, -103.777, -44.394, -10.878, -23.912,, 0.61713, 0.00113, 0.0022, -0.78677,
 15:10:57.419,d3:c7:8d:a5:a9:b5, 2015-01-01 00:06:25.505, -0.003, -0.001, 1, 0.244, -0.183, 0, -0.104, 0.258, -103.777, -44.394, -10.878, -23.912,, 0.61713, 0.00113, 0.0022, -0.78677,
 15:10:57.419,d3:c7:8d:a5:a9:b5, 2015-01-01 00:06:25.505, -0.003, -0.001, 0.999, 0.122, -0.183, 0, -0.104, 0.258, -103.777, -44.394, -10.878, -23.912,, 0.61713, 0.00113, 0.0022, -0.78677,
 15:10:57.448,d3:c7:8d:a5:a9:b5, 2015-01-01 00:06:25.505, 0, -0.001, 0.999, 0.122, -0.183, 0, -0.104, 0.253, -103.777, -44.394, -10.878, -23.912,, 0.61713, 0.00113, 0.0022, -0.78677,
 15:10:57.448,d3:c7:8d:a5:a9:b5, 2015-01-01 00:06:25.505, 0, 0, 0.999, 0, -0.061, 0, -0.104, 0.253, -103.777, -44.394, -10.878, -23.912,, 0.61713, 0.00113, 0.0022, -0.78677,
 15:10:57.448,d3:c7:8d:a5:a9:b5, 2015-01-01 00:06:25.505, 0, 0, 0.999, 0, -0.061, 0, -0.104, 0.253, -103.777, -44.394, -10.878, -23.912,, 0.61713, 0.00113, 0.0022, -0.78677,
 15:10:57.448,d3:c7:8d:a5:a9:b5, 2015-01-01 00:06:25.505, 0, 0, 0.999, -0.305, 0, 0, -0.104, 0.253, -103.777, -44.394, -10.878, -23.912,, 0.61713, 0.00113, 0.0022, -0.78677,
 15:10:57.477,d3:c7:8d:a5:a9:b5, 2015-01-01 00:06:25.505, -0.005, 0, 0.999, -0.305, 0, 0, -0.11, 0.253, -103.777, -44.394, -10.878, -23.912,, 0.61713, 0.00113, 0.0022, -0.78677,
 15:10:57.477,d3:c7:8d:a5:a9:b5, 2015-01-01 00:06:25.505, -0.005, -0.003, 0.999, -0.427, 0.122, 0, -0.115, 0.253, -103.777, -44.394, -10.878, -23.912,, 0.61713, 0.00113, 0.0022, -0.78677,
 15:10:57.477,d3:c7:8d:a5:a9:b5, 2015-01-01 00:06:25.505, -0.008, -0.003, 0.999, -0.427, 0.122, 0, -0.115, 0.258, -103.777, -44.394, -10.878, -23.912,, 0.61713, 0.00113, 0.0022, -0.78677,
 15:10:57.477,d3:c7:8d:a5:a9:b5, 2015-01-01 00:06:25.505, -0.008, -0.006, 0.999, 0.122, 0, 0, -0.115, 0.258, -103.777, -44.394, -10.878, -23.912,, 0.61713, 0.00113, 0.0022, -0.78677,
 15:10:57.536,d3:c7:8d:a5:a9:b5, 2015-01-01 00:06:25.505, -0.006, -0.006, 0.999, 0.122, 0, 0, -0.115, 0.258, -103.777, -44.394, -10.878, -23.912,, 0.61713, 0.00113, 0.0022, -0.78677,
 15:10:57.536,d3:c7:8d:a5:a9:b5, 2015-01-01 00:06:25.505, -0.006, -0.001, 0.998, 0.488, 0, 0, -0.11, 0.258, -103.777, -44.394, -10.878, -23.912,, 0.61713, 0.00113, 0.0022, -0.78677,
 15:10:57.536,d3:c7:8d:a5:a9:b5, 2015-01-01 00:06:25.505, -0.005, -0.001, 0.998, 0.488, 0, 0, -0.104, 0.258, -103.777, -44.394, -10.878, -23.912,, 0.61713, 0.00113, 0.0022, -0.78677,
 15:10:57.536,d3:c7:8d:a5:a9:b5, 2015-01-01 00:06:25.505, -0.005, 0.001, 1, 0.183, 0, 0, -0.104, 0.258, -103.777, -44.394, -10.878, -23.912,, 0.61713, 0.00113, 0.0022, -0.78677,
 15:10:57.568,d3:c7:8d:a5:a9:b5, 2015-01-01 00:06:25.505, -0.008, 0.001, 1, 0.183, 0, 0, -0.104, 0.258, -103.777, -44.394, -10.878, -23.912,, 0.61713, 0.00113, 0.0022, -0.78677,
 15:10:57.568,d3:c7:8d:a5:a9:b5, 2015-01-01 00:06:25.505, -0.008, 0, 0.999, -0.061, 0, 0, -0.104, 0.258, -103.777, -44.394, -10.878, -23.912,, 0.61713, 0.00113, 0.0022, -0.78677,
 15:10:57.568,d3:c7:8d:a5:a9:b5, 2015-01-01 00:06:25.505, -0.007, 0, 0.999, -0.061, 0, 0, -0.104, 0.258, -103.777, -44.394, -10.878, -23.912,, 0.61713, 0.00113, 0.0022, -0.78677,
 15:10:57.568,d3:c7:8d:a5:a9:b5, 2015-01-01 00:06:25.505, -0.007, -0.002, 0.998, -0.305, -0.122, 0, -0.104, 0.258, -103.777, -44.394, -10.878, -23.912,, 0.61713, 0.00113, 0.0022, -0.78677,
 15:10:57.598,d3:c7:8d:a5:a9:b5, 2015-01-01 00:06:25.505, -0.005, -0.002, 0.998, -0.305, -0.122, 0, -0.11, 0.253, -103.777, -44.394, -10.976, -23.912,, 0.61713, 0.00113, 0.0022, -0.78677,
 15:10:57.598,d3:c7:8d:a5:a9:b5, 2015-01-01 00:06:25.505, -0.005, -0.004, 1, 0, -0.244, 0, -0.11, 0.253, -103.777, -44.394, -10.976, -23.912,, 0.61713, 0.00113, 0.0022, -0.78677,
 15:10:57.598,d3:c7:8d:a5:a9:b5, 2015-01-01 00:06:25.505, 0.001, -0.004, 1, 0, -0.244, 0, -0.11, 0.253, -103.777, -44.394, -10.976, -23.912,, 0.61713, 0.00113, 0.0022, -0.78677,
 15:10:57.598,d3:c7:8d:a5:a9:b5, 2015-01-01 00:06:25.505, 0.001, 0, 1, 0.183, -0.183, 0, -0.104, 0.247, -103.777, -44.394, -10.976, -23.912,, 0.61713, 0.00113, 0.0022, -0.78677,
 15:10:57.658,d3:c7:8d:a5:a9:b5, 2015-01-01 00:06:25.505, 0, 0, 1, 0.183, -0.183, 0, -0.104, 0.247, -103.777, -44.394, -10.976, -23.912,, 0.61713, 0.00113, 0.0022, -0.78677,
 15:10:57.658,d3:c7:8d:a5:a9:b5, 2015-01-01 00:06:25.505, 0, 0, 1, -0.122, 0.183, 0, -0.104, 0.247, -103.777, -44.394, -10.976, -23.912,, 0.61713, 0.00113, 0.0022, -0.78677,
 15:10:57.658,d3:c7:8d:a5:a9:b5, 2015-01-01 00:06:25.505, -0.009, 0, 1, -0.122, 0.183, 0, -0.104, 0.253, -103.777, -44.394, -10.976, -23.912,, 0.61713, 0.00113, 0.0022, -0.78677,
 15:10:57.658,d3:c7:8d:a5:a9:b5, 2015-01-01 00:06:25.505, -0.009, -0.004, 0.998, -0.122, 0.061, 0, -0.11, 0.253, -103.777, -44.394, -10.976, -23.912,, 0.61713, 0.00113, 0.0022, -0.78677,
 15:10:57.688,d3:c7:8d:a5:a9:b5, 2015-01-01 00:06:25.505, -0.007, -0.004, 0.998, -0.122, 0.061, 0, -0.11, 0.253, -103.777, -44.394, -10.976, -23.912,, 0.61713, 0.00113, 0.00211, -0.78677,
 15:10:57.688,d3:c7:8d:a5:a9:b5, 2015-01-01 00:06:25.505, -0.007, -0.004, 0.998, 0.305, -0.183, 0, -0.104, 0.253, -103.777, -44.394, -10.976, -23.912,, 0.61713, 0.00113, 0.00211, -0.78677,
 15:10:57.688,d3:c7:8d:a5:a9:b5, 2015-01-01 00:06:25.505, -0.004, -0.004, 0.998, 0.305, -0.183, 0, -0.104, 0.247, -103.777, -44.394, -10.976, -23.912,, 0.61713, 0.00113, 0.00211, -0.78677,
 15:10:57.688,d3:c7:8d:a5:a9:b5, 2015-01-01 00:06:25.505, -0.004, 0, 1, 0.305, -0.061, 0, -0.099, 0.247, -103.777, -44.394, -10.976, -23.912,, 0.61713, 0.00113, 0.00211, -0.78677,
 15:10:57.719,d3:c7:8d:a5:a9:b5, 2015-01-01 00:06:25.505, -0.004, 0, 1, 0.305, -0.061, 0, -0.099, 0.247, -103.777, -44.394, -10.976, -23.912,, 0.61713, 0.00113, 0.00211, -0.78677,
 15:10:57.719,d3:c7:8d:a5:a9:b5, 2015-01-01 00:06:25.505, -0.004, 0, 0.999, 0, 0, 0, -0.099, 0.247, -103.777, -44.394, -10.976, -23.912,, 0.61713, 0.00113, 0.00211, -0.78677,
 15:10:57.719,d3:c7:8d:a5:a9:b5, 2015-01-01 00:06:25.505, -0.006, 0, 0.999, 0, 0, 0, -0.099, 0.247, -103.777, -44.394, -10.976, -23.912,, 0.61713, 0.00113, 0.00211, -0.78677,
 15:10:57.719,d3:c7:8d:a5:a9:b5, 2015-01-01 00:06:25.505, -0.006, 0, 0.999, -0.122, 0, 0, -0.099, 0.247, -103.777, -44.394, -10.976, -23.912,, 0.61713, 0.00113, 0.00211, -0.78677,
 15:10:57.778,d3:c7:8d:a5:a9:b5, 2015-01-01 00:06:25.860, -0.003, 0, 0.999, -0.122, 0, 0, -0.099, 0.247, -103.777, -44.394, -10.976, -23.912,, 0.61713, 0.00113, 0.00211, -0.78677,
 15:10:57.778,d3:c7:8d:a5:a9:b5, 2015-01-01 00:06:25.860, -0.003, -0.001, 0.999, -0.244, -0.122, 0, -0.099, 0.247, -103.777, -44.394, -10.976, -23.912,, 0.61713, 0.00113, 0.00211, -0.78677,
 15:10:57.778,d3:c7:8d:a5:a9:b5, 2015-01-01 00:06:25.860, -0.002, -0.001, 0.999, -0.244, -0.122, 0, -0.104, 0.247, -103.777, -44.394, -10.976, -23.912,, 0.61713, 0.00113, 0.00211, -0.78677,
 15:10:57.778,d3:c7:8d:a5:a9:b5, 2015-01-01 00:06:25.860, -0.002, -0.002, 1.001, -0.183, 0, 0, -0.104, 0.247, -103.777, -44.394, -10.976, -23.912,, 0.61713, 0.00113, 0.00211, -0.78677,
 15:10:57.807,d3:c7:8d:a5:a9:b5, 2015-01-01 00:06:25.860, -0.003, -0.002, 1.001, -0.183, 0, 0, -0.104, 0.247, -103.777, -44.394, -10.976, -23.912,, 0.61713, 0.00113, 0.00211, -0.78677,
 15:10:57.807,d3:c7:8d:a5:a9:b5, 2015-01-01 00:06:25.860, -0.003, -0.004, 0.999, 0.122, 0.122, 0, -0.104, 0.247, -103.777, -44.394, -10.976, -23.912,, 0.61713, 0.00113, 0.00211, -0.78677,
 15:10:57.807,d3:c7:8d:a5:a9:b5, 2015-01-01 00:06:25.860, -0.004, -0.004, 0.999, 0.122, 0.122, 0, -0.104, 0.247, -103.777, -44.394, -10.976, -23.912,, 0.61713, 0.00113, 0.00211, -0.78677,
 15:10:57.807,d3:c7:8d:a5:a9:b5, 2015-01-01 00:06:25.860, -0.004, -0.001, 0.998, 0.366, 0.061, 0, -0.099, 0.253, -103.777, -44.394, -10.976, -23.912,, 0.61713, 0.00113, 0.00211, -0.78677,
 15:10:57.837,d3:c7:8d:a5:a9:b5, 2015-01-01 00:06:25.860, -0.005, -0.001, 0.998, 0.366, 0.061, 0, -0.099, 0.253, -103.777, -44.394, -10.976, -23.912,, 0.61713, 0.00113, 0.00211, -0.78677,
 15:10:57.837,d3:c7:8d:a5:a9:b5, 2015-01-01 00:06:25.860, -0.007, 0.001, 0.999, 0, 0.061, 0, -0.099, 0.253, -103.777, -44.394, -10.976, -23.912,, 0.61713, 0.00113, 0.00211, -0.78677,
 15:10:57.837,d3:c7:8d:a5:a9:b5, 2015-01-01 00:06:25.860, -0.007, 0, 0.999, -0.122, 0.122, 0, -0.099, 0.253, -103.777, -44.394, -10.976, -23.912,, 0.61713, 0.00113, 0.00211, -0.78677,
 15:10:57.837,d3:c7:8d:a5:a9:b5, 2015-01-01 00:06:25.860, -0.01, 0, 0.999, -0.122, 0.122, 0, -0.099, 0.253, -103.777, -44.394, -10.976, -23.912,, 0.61713, 0.00113, 0.00211, -0.78677,
 15:10:57.897,d3:c7:8d:a5:a9:b5, 2015-01-01 00:06:25.860, -0.01, -0.002, 0.998, -0.061, -0.061, 0, -0.099, 0.253, -103.777, -44.394, -10.976, -23.912,, 0.61713, 0.00113, 0.00211, -0.78677,
 15:10:57.897,d3:c7:8d:a5:a9:b5, 2015-01-01 00:06:25.860, -0.006, -0.002, 0.998, -0.061, -0.061, 0, -0.099, 0.253, -103.777, -44.394, -10.976, -23.912,, 0.61713, 0.00113, 0.00211, -0.78677,
 15:10:57.897,d3:c7:8d:a5:a9:b5, 2015-01-01 00:06:25.860, -0.006, -0.001, 0.999, 0, -0.122, 0, -0.099, 0.253, -103.777, -44.394, -10.976, -23.912,, 0.61713, 0.00113, 0.00211, -0.78677,
 15:10:57.897,d3:c7:8d:a5:a9:b5, 2015-01-01 00:06:25.860, -0.004, -0.001, 0.999, 0, -0.122, 0, -0.099, 0.253, -103.777, -44.394, -10.976, -23.912,, 0.61713, 0.00113, 0.00211, -0.78677,
 15:10:57.927,d3:c7:8d:a5:a9:b5, 2015-01-01 00:06:25.860, -0.004, -0.002, 1, 0.061, -0.244, 0, -0.099, 0.253, -103.777, -44.394, -10.976, -23.912,, 0.61713, 0.00113, 0.00211, -0.78677,
 15:10:57.927,d3:c7:8d:a5:a9:b5, 2015-01-01 00:06:25.860, 0, -0.002, 1, 0.061, -0.244, 0, -0.099, 0.247, -103.777, -44.394, -10.976, -23.912,, 0.61713, 0.00113, 0.00211, -0.78677,
 15:10:57.927,d3:c7:8d:a5:a9:b5, 2015-01-01 00:06:25.860, 0, 0, 0.999, 0.244, -0.183, 0, -0.099, 0.247, -103.777, -44.394, -10.976, -23.912,, 0.61713, 0.00113, 0.00211, -0.78677,
 15:10:57.927,d3:c7:8d:a5:a9:b5, 2015-01-01 00:06:25.860, -0.002, 0, 0.999, 0.244, -0.183, 0, -0.093, 0.247, -103.777, -44.394, -10.976, -23.912,, 0.61713, 0.00113, 0.00211, -0.78677,
 15:10:57.957,d3:c7:8d:a5:a9:b5, 2015-01-01 00:06:25.860, -0.002, 0, 0.999, 0, 0, 0, -0.093, 0.247, -103.777, -44.296, -10.878, -23.814,, 0.61713, 0.00113, 0.00211, -0.78677,
 15:10:57.957,d3:c7:8d:a5:a9:b5, 2015-01-01 00:06:25.860, -0.004, 0, 0.999, 0, 0, 0, -0.093, 0.247, -103.777, -44.296, -10.878, -23.814,, 0.61713, 0.00113, 0.00211, -0.78677,
 15:10:57.957,d3:c7:8d:a5:a9:b5, 2015-01-01 00:06:25.860, -0.004, -0.001, 1, 0, 0, 0, -0.093, 0.247, -103.777, -44.296, -10.878, -23.814,, 0.61713, 0.00113, 0.00211, -0.78677,
 15:10:57.957,d3:c7:8d:a5:a9:b5, 2015-01-01 00:06:25.860, -0.005, -0.001, 1, 0, 0, 0, -0.093, 0.247, -103.777, -44.296, -10.878, -23.814,, 0.61713, 0.00113, 0.00211, -0.78677,
 15:10:58.017,d3:c7:8d:a5:a9:b5, 2015-01-01 00:06:25.860, -0.005, -0.001, 0.999, -0.061, 0, 0, -0.093, 0.247, -103.777, -44.296, -10.878, -23.814,, 0.61713, 0.00113, 0.00211, -0.78677,
 15:10:58.017,d3:c7:8d:a5:a9:b5, 2015-01-01 00:06:25.860, -0.004, -0.001, 0.999, -0.061, 0, 0, -0.093, 0.247, -103.777, -44.296, -10.878, -23.814,, 0.61713, 0.00113, 0.00211, -0.78677,
 15:10:58.017,d3:c7:8d:a5:a9:b5, 2015-01-01 00:06:25.860, -0.004, -0.002, 0.998, 0, 0, 0, -0.093, 0.247, -103.777, -44.296, -10.878, -23.814,, 0.61713, 0.00113, 0.00211, -0.78677,
 15:10:58.017,d3:c7:8d:a5:a9:b5, 2015-01-01 00:06:25.860, -0.005, -0.002, 0.998, 0, 0, 0, -0.093, 0.247, -103.777, -44.296, -10.878, -23.814,, 0.61713, 0.00113, 0.00211, -0.78677,
 15:10:58.047,d3:c7:8d:a5:a9:b5, 2015-01-01 00:06:25.860, -0.005, 0, 1, 0.122, 0, 0, -0.093, 0.247, -103.777, -44.296, -10.878, -23.814,, 0.61713, 0.00116, 0.00198, -0.78677,
 15:10:58.047,d3:c7:8d:a5:a9:b5, 2015-01-01 00:06:25.860, -0.006, 0, 1, 0.122, 0, 0, -0.093, 0.247, -103.777, -44.296, -10.878, -23.814,, 0.61713, 0.00116, 0.00198, -0.78677,
 15:10:58.047,d3:c7:8d:a5:a9:b5, 2015-01-01 00:06:25.860, -0.006, 0, 0.999, 0, 0, 0, -0.093, 0.247, -103.777, -44.296, -10.878, -23.814,, 0.61713, 0.00116, 0.00198, -0.78677,
 15:10:58.047,d3:c7:8d:a5:a9:b5, 2015-01-01 00:06:25.860, -0.006, 0, 0.999, 0, 0, 0, -0.088, 0.247, -103.777, -44.296, -10.878, -23.814,, 0.61713, 0.00116, 0.00198, -0.78677,
 15:10:58.077,d3:c7:8d:a5:a9:b5, 2015-01-01 00:06:25.860, -0.006, -0.001, 0.998, -0.061, -0.122, 0, -0.093, 0.247, -103.777, -44.296, -10.878, -23.814,, 0.61713, 0.00116, 0.00198, -0.78677,
 15:10:58.077,d3:c7:8d:a5:a9:b5, 2015-01-01 00:06:25.860, -0.003, -0.001, 0.998, -0.061, -0.122, 0, -0.093, 0.242, -103.777, -44.296, -10.878, -23.814,, 0.61713, 0.00116, 0.00198, -0.78677,
 15:10:58.077,d3:c7:8d:a5:a9:b5, 2015-01-01 00:06:25.860, -0.003, 0, 1, 0, -0.061, 0, -0.093, 0.242, -103.777, -44.296, -10.878, -23.814,, 0.61713, 0.00116, 0.00198, -0.78677,
 15:10:58.077,d3:c7:8d:a5:a9:b5, 2015-01-01 00:06:25.860, -0.004, 0, 1, 0, -0.061, 0, -0.093, 0.242, -103.777, -44.296, -10.878, -23.814,, 0.61713, 0.00116, 0.00198, -0.78677,
 15:10:58.136,d3:c7:8d:a5:a9:b5, 2015-01-01 00:06:26.220, -0.004, -0.001, 0.999, -0.061, 0, 0, -0.093, 0.242, -103.777, -44.296, -10.878, -23.814,, 0.61713, 0.00116, 0.00198, -0.78677,
 15:10:58.136,d3:c7:8d:a5:a9:b5, 2015-01-01 00:06:26.220, -0.002, -0.001, 0.999, -0.061, 0, 0, -0.093, 0.242, -103.777, -44.296, -10.878, -23.814,, 0.61713, 0.00116, 0.00198, -0.78677,
 15:10:58.136,d3:c7:8d:a5:a9:b5, 2015-01-01 00:06:26.220, -0.002, -0.001, 0.999, 0, 0, 0, -0.093, 0.242, -103.777, -44.296, -10.878, -23.814,, 0.61713, 0.00116, 0.00198, -0.78677,
 15:10:58.136,d3:c7:8d:a5:a9:b5, 2015-01-01 00:06:26.220, -0.004, -0.001, 0.999, 0, 0, 0, -0.093, 0.242, -103.777, -44.296, -10.878, -23.814,, 0.61713, 0.00116, 0.00198, -0.78677,
 15:10:58.167,d3:c7:8d:a5:a9:b5, 2015-01-01 00:06:26.220, -0.004, -0.002, 1, 0.183, 0.061, 0, -0.093, 0.242, -103.777, -44.296, -10.878, -23.814,, 0.61713, 0.00116, 0.00198, -0.78677,
 15:10:58.167,d3:c7:8d:a5:a9:b5, 2015-01-01 00:06:26.220, -0.003, -0.002, 1, 0.183, 0.061, 0, -0.088, 0.242, -103.777, -44.296, -10.878, -23.814,, 0.61713, 0.00116, 0.00198, -0.78677,
 15:10:58.167,d3:c7:8d:a5:a9:b5, 2015-01-01 00:06:26.220, -0.003, 0.001, 0.999, 0.122, 0.061, 0, -0.088, 0.247, -103.777, -44.296, -10.878, -23.814,, 0.61713, 0.00116, 0.00198, -0.78677,
 15:10:58.168,d3:c7:8d:a5:a9:b5, 2015-01-01 00:06:26.220, -0.007, 0.001, 0.999, 0.122, 0.061, 0, -0.088, 0.247, -103.777, -44.296, -10.878, -23.814,, 0.61713, 0.00116, 0.00198, -0.78677,
 15:10:58.197,d3:c7:8d:a5:a9:b5, 2015-01-01 00:06:26.220, -0.007, -0.001, 1, -0.244, 0.122, 0, -0.088, 0.247, -103.777, -44.296, -10.878, -23.814,, 0.61713, 0.00116, 0.00198, -0.78677,
 15:10:58.197,d3:c7:8d:a5:a9:b5, 2015-01-01 00:06:26.220, -0.004, -0.001, 1, -0.244, 0.122, 0, -0.088, 0.247, -103.777, -44.296, -10.878, -23.814,, 0.61713, 0.00116, 0.00198, -0.78677,
 15:10:58.197,d3:c7:8d:a5:a9:b5, 2015-01-01 00:06:26.220, -0.004, -0.002, 0.998, -0.061, -0.061, 0, -0.088, 0.247, -103.777, -44.296, -10.878, -23.814,, 0.61713, 0.00116, 0.00198, -0.78677,
 15:10:58.197,d3:c7:8d:a5:a9:b5, 2015-01-01 00:06:26.220, -0.004, -0.002, 0.998, -0.061, -0.061, 0, -0.093, 0.247, -103.777, -44.296, -10.878, -23.814,, 0.61713, 0.00116, 0.00198, -0.78677,
 15:10:58.257,d3:c7:8d:a5:a9:b5, 2015-01-01 00:06:26.220, -0.004, -0.002, 1, 0, 0, 0, -0.093, 0.247, -103.777, -44.296, -10.878, -23.814,, 0.61713, 0.00116, 0.00198, -0.78677,
 15:10:58.257,d3:c7:8d:a5:a9:b5, 2015-01-01 00:06:26.220, -0.005, -0.002, 1, 0, 0, 0, -0.093, 0.247, -103.777, -44.296, -10.878, -23.814,, 0.61713, 0.00116, 0.00198, -0.78677,
 15:10:58.257,d3:c7:8d:a5:a9:b5, 2015-01-01 00:06:26.220, -0.005, -0.003, 0.999, 0.244, 0, 0, -0.088, 0.247, -103.777, -44.296, -10.878, -23.814,, 0.61713, 0.00116, 0.00198, -0.78677,
 15:10:58.257,d3:c7:8d:a5:a9:b5, 2015-01-01 00:06:26.220, -0.004, -0.003, 0.999, 0.244, 0, 0, -0.088, 0.247, -103.777, -44.296, -10.878, -23.814,, 0.61713, 0.00116, 0.00198, -0.78677,
 15:10:58.287,d3:c7:8d:a5:a9:b5, 2015-01-01 00:06:26.220, -0.004, 0, 0.999, 0.366, 0, 0, -0.082, 0.247, -103.777, -44.296, -10.878, -23.814,, 0.61713, 0.00116, 0.00198, -0.78677,
 15:10:58.287,d3:c7:8d:a5:a9:b5, 2015-01-01 00:06:26.220, -0.003, 0, 0.999, 0.366, 0, 0, -0.082, 0.247, -103.777, -44.296, -10.878, -23.814,, 0.61713, 0.00116, 0.00198, -0.78677,
 15:10:58.287,d3:c7:8d:a5:a9:b5, 2015-01-01 00:06:26.220, -0.003, 0, 0.999, 0, 0.061, 0, -0.082, 0.247, -103.777, -44.296, -10.878, -23.814,, 0.61713, 0.00116, 0.00198, -0.78677,
 15:10:58.287,d3:c7:8d:a5:a9:b5, 2015-01-01 00:06:26.220, -0.008, 0, 0.999, 0, 0.061, 0, -0.082, 0.247, -103.777, -44.296, -10.878, -23.814,, 0.61713, 0.00116, 0.00198, -0.78677,
 15:10:58.317,d3:c7:8d:a5:a9:b5, 2015-01-01 00:06:26.220, -0.008, 0, 0.998, -0.244, 0, 0, -0.082, 0.247, -103.777, -44.394, -10.878, -23.912,, 0.61713, 0.00116, 0.00198, -0.78677,
 15:10:58.317,d3:c7:8d:a5:a9:b5, 2015-01-01 00:06:26.220, -0.007, 0, 0.998, -0.244, 0, 0, -0.088, 0.247, -103.777, -44.394, -10.878, -23.912,, 0.61713, 0.00116, 0.00198, -0.78677,
 15:10:58.317,d3:c7:8d:a5:a9:b5, 2015-01-01 00:06:26.220, -0.007, -0.001, 0.999, 0, -0.183, 0, -0.088, 0.247, -103.777, -44.394, -10.878, -23.912,, 0.61713, 0.00116, 0.00198, -0.78677,
 15:10:58.317,d3:c7:8d:a5:a9:b5, 2015-01-01 00:06:26.220, 0, -0.001, 0.999, 0, -0.183, 0, -0.082, 0.247, -103.777, -44.394, -10.878, -23.912,, 0.61713, 0.00116, 0.00198, -0.78677,
 15:10:58.408,d3:c7:8d:a5:a9:b5, 2015-01-01 00:06:26.220, 0, 0.001, 1, -0.305, 0, 0, -0.088, 0.247, -103.777, -44.394, -10.878, -23.912,, 0.61713, 0.00116, 0.00198, -0.78677,
 15:10:58.408,d3:c7:8d:a5:a9:b5, 2015-01-01 00:06:26.220, -0.004, 0.001, 1, -0.305, 0, 0, -0.093, 0.247, -103.777, -44.394, -10.878, -23.912,, 0.61713, 0.00116, 0.00198, -0.78677,
 15:10:58.408,d3:c7:8d:a5:a9:b5, 2015-01-01 00:06:26.220, -0.004, -0.006, 0.998, -0.305, 0.244, 0, -0.093, 0.247, -103.777, -44.394, -10.878, -23.912,, 0.61713, 0.00116, 0.00198, -0.78677,
 15:10:58.408,d3:c7:8d:a5:a9:b5, 2015-01-01 00:06:26.220, -0.005, -0.006, 0.998, -0.305, 0.244, 0, -0.099, 0.253, -103.777, -44.394, -10.878, -23.912,, 0.61713, 0.00116, 0.00198, -0.78677,
 15:10:58.408,d3:c7:8d:a5:a9:b5, 2015-01-01 00:06:26.220, -0.005, -0.003, 0.999, 0.671, 0.061, 0, -0.088, 0.253, -103.777, -44.394, -10.878, -23.912,, 0.61713, 0.00116, 0.00198, -0.78677,
 15:10:58.408,d3:c7:8d:a5:a9:b5, 2015-01-01 00:06:26.220, -0.004, -0.003, 0.999, 0.671, 0.061, 0, -0.082, 0.253, -103.777, -44.394, -10.878, -23.912,, 0.61713, 0.00116, 0.00198, -0.78677,
 15:10:58.408,d3:c7:8d:a5:a9:b5, 2015-01-01 00:06:26.220, -0.004, 0.003, 0.999, 0.244, 0, 0, -0.082, 0.253, -103.777, -44.394, -10.878, -23.912,, 0.61713, 0.00116, 0.00198, -0.78677,
 15:10:58.408,d3:c7:8d:a5:a9:b5, 2015-01-01 00:06:26.220, -0.006, 0.003, 0.999, 0.244, 0, 0, -0.077, 0.253, -103.777, -44.394, -10.878, -23.912,, 0.61713, 0.00116, 0.00198, -0.78677,
 15:10:58.468,d3:c7:8d:a5:a9:b5, 2015-01-01 00:06:26.220, -0.006, 0, 0.999, -0.244, -0.061, 0, -0.082, 0.253, -103.777, -44.394, -10.878, -23.912,, 0.61713, 0.00119, 0.00198, -0.78677,
 15:10:58.468,d3:c7:8d:a5:a9:b5, 2015-01-01 00:06:26.220, -0.004, 0, 0.999, -0.244, -0.061, 0, -0.082, 0.253, -103.777, -44.394, -10.878, -23.912,, 0.61713, 0.00119, 0.00198, -0.78677,
 15:10:58.468,d3:c7:8d:a5:a9:b5, 2015-01-01 00:06:26.220, -0.004, -0.001, 0.999, -0.061, -0.183, 0, -0.082, 0.253, -103.777, -44.394, -10.878, -23.912,, 0.61713, 0.00119, 0.00198, -0.78677,
 15:10:58.468,d3:c7:8d:a5:a9:b5, 2015-01-01 00:06:26.220, -0.003, -0.001, 0.999, -0.061, -0.183, 0, -0.082, 0.247, -103.777, -44.394, -10.878, -23.912,, 0.61713, 0.00119, 0.00198, -0.78677,
 15:10:58.497,d3:c7:8d:a5:a9:b5, 2015-01-01 00:06:26.605, -0.003, 0, 0.999, -0.122, -0.061, 0, -0.082, 0.247, -103.777, -44.394, -10.878, -23.912,, 0.61713, 0.00119, 0.00198, -0.78677,
 15:10:58.497,d3:c7:8d:a5:a9:b5, 2015-01-01 00:06:26.605, -0.004, 0, 0.999, -0.122, -0.061, 0, -0.088, 0.247, -103.777, -44.394, -10.878, -23.912,, 0.61713, 0.00119, 0.00198, -0.78677,
 15:10:58.497,d3:c7:8d:a5:a9:b5, 2015-01-01 00:06:26.605, -0.004, -0.003, 1, -0.122, 0.122, 0, -0.088, 0.247, -103.777, -44.394, -10.878, -23.912,, 0.61713, 0.00119, 0.00198, -0.78677,
 15:10:58.497,d3:c7:8d:a5:a9:b5, 2015-01-01 00:06:26.605, -0.006, -0.003, 1, -0.122, 0.122, 0, -0.088, 0.253, -103.777, -44.394, -10.878, -23.912,, 0.61713, 0.00119, 0.00198, -0.78677,
 15:10:58.527,d3:c7:8d:a5:a9:b5, 2015-01-01 00:06:26.605, -0.006, 0, 0.998, 0.183, 0.061, 0, -0.088, 0.253, -103.777, -44.394, -10.878, -23.912,, 0.61713, 0.00119, 0.00198, -0.78677,
 15:10:58.527,d3:c7:8d:a5:a9:b5, 2015-01-01 00:06:26.605, -0.008, 0, 0.998, 0.183, 0.061, 0, -0.082, 0.253, -103.777, -44.394, -10.878, -23.912,, 0.61713, 0.00119, 0.00198, -0.78677,
 15:10:58.527,d3:c7:8d:a5:a9:b5, 2015-01-01 00:06:26.605, -0.008, 0, 0.999, -0.244, -0.061, 0, -0.088, 0.253, -103.777, -44.394, -10.878, -23.912,, 0.61713, 0.00119, 0.00198, -0.78677,
 15:10:58.527,d3:c7:8d:a5:a9:b5, 2015-01-01 00:06:26.605, -0.003, 0, 0.999, -0.244, -0.061, 0, -0.088, 0.253, -103.777, -44.394, -10.878, -23.912,, 0.61713, 0.00119, 0.00198, -0.78677,
 15:10:58.587,d3:c7:8d:a5:a9:b5, 2015-01-01 00:06:26.605, -0.003, -0.003, 0.999, 0, -0.244, 0, -0.088, 0.247, -103.777, -44.394, -10.878, -23.912,, 0.61713, 0.00119, 0.00198, -0.78677,
 15:10:58.587,d3:c7:8d:a5:a9:b5, 2015-01-01 00:06:26.605, 0, -0.003, 0.999, 0, -0.244, 0, -0.088, 0.247, -103.777, -44.394, -10.878, -23.912,, 0.61713, 0.00119, 0.00198, -0.78677,
 15:10:58.587,d3:c7:8d:a5:a9:b5, 2015-01-01 00:06:26.605, 0, 0, 0.999, 0.244, 0, 0, -0.088, 0.247, -103.777, -44.394, -10.878, -23.912,, 0.61713, 0.00119, 0.00198, -0.78677,
 15:10:58.587,d3:c7:8d:a5:a9:b5, 2015-01-01 00:06:26.605, -0.005, 0, 0.999, 0.244, 0, 0, -0.082, 0.247, -103.777, -44.394, -10.878, -23.912,, 0.61713, 0.00119, 0.00198, -0.78677,
 15:10:58.617,d3:c7:8d:a5:a9:b5, 2015-01-01 00:06:26.605, -0.005, 0, 1, 0, 0.122, 0, -0.082, 0.247, -103.777, -44.394, -10.878, -23.912,, 0.61713, 0.00119, 0.00198, -0.78677,
 15:10:58.617,d3:c7:8d:a5:a9:b5, 2015-01-01 00:06:26.605, -0.006, 0, 1, 0, 0.122, 0, -0.082, 0.247, -103.777, -44.394, -10.878, -23.912,, 0.61713, 0.00119, 0.00198, -0.78677,
 15:10:58.617,d3:c7:8d:a5:a9:b5, 2015-01-01 00:06:26.605, -0.006, 0, 1, -0.061, 0, 0, -0.082, 0.247, -103.777, -44.394, -10.878, -23.912,, 0.61713, 0.00119, 0.00198, -0.78677,
 15:10:58.617,d3:c7:8d:a5:a9:b5, 2015-01-01 00:06:26.605, -0.007, 0, 1, -0.061, 0, 0, -0.082, 0.247, -103.777, -44.394, -10.878, -23.912,, 0.61713, 0.00119, 0.00198, -0.78677,
 15:10:58.648,d3:c7:8d:a5:a9:b5, 2015-01-01 00:06:26.605, -0.007, -0.002, 0.999, -0.305, 0, 0, -0.088, 0.247, -103.777, -44.394, -10.878, -23.912,, 0.61713, 0.00119, 0.00198, -0.78677,
 15:10:58.648,d3:c7:8d:a5:a9:b5, 2015-01-01 00:06:26.605, -0.003, -0.002, 0.999, -0.305, 0, 0, -0.088, 0.247, -103.777, -44.394, -10.878, -23.912,, 0.61713, 0.00119, 0.00198, -0.78677,
 15:10:58.648,d3:c7:8d:a5:a9:b5, 2015-01-01 00:06:26.605, -0.003, -0.003, 0.999, 0.122, -0.122, 0, -0.088, 0.247, -103.777, -44.394, -10.878, -23.912,, 0.61713, 0.00119, 0.00198, -0.78677,
 15:10:58.648,d3:c7:8d:a5:a9:b5, 2015-01-01 00:06:26.605, -0.001, -0.003, 0.999, 0.122, -0.122, 0, -0.088, 0.247, -103.777, -44.394, -10.878, -23.912,, 0.61713, 0.00119, 0.00198, -0.78677,
 15:10:58.708,d3:c7:8d:a5:a9:b5, 2015-01-01 00:06:26.605, -0.001, 0, 1, 0.061, 0.122, 0, -0.088, 0.247, -103.777, -44.394, -10.878, -23.912,, 0.61713, 0.00119, 0.00198, -0.78677,
 15:10:58.708,d3:c7:8d:a5:a9:b5, 2015-01-01 00:06:26.605, -0.006, 0, 1, 0.061, 0.122, 0, -0.088, 0.253, -103.777, -44.394, -10.878, -23.912,, 0.61713, 0.00119, 0.00198, -0.78677,
 15:10:58.708,d3:c7:8d:a5:a9:b5, 2015-01-01 00:06:26.605, -0.006, -0.001, 0.999, 0.122, 0.122, 0, -0.088, 0.253, -103.777, -44.394, -10.878, -23.912,, 0.61713, 0.00119, 0.00198, -0.78677,
 15:10:58.708,d3:c7:8d:a5:a9:b5, 2015-01-01 00:06:26.605, -0.002, -0.001, 0.999, 0.122, 0.122, 0, -0.082, 0.253, -103.777, -44.394, -10.878, -23.912,, 0.61713, 0.00119, 0.00198, -0.78677,
 15:10:58.737,d3:c7:8d:a5:a9:b5, 2015-01-01 00:06:26.605, -0.002, 0.001, 0.998, 0, 0, 0, -0.082, 0.253, -103.777, -44.394, -10.878, -23.814,, 0.61713, 0.00119, 0.00198, -0.78677,
 15:10:58.737,d3:c7:8d:a5:a9:b5, 2015-01-01 00:06:26.605, -0.007, 0.001, 0.998, 0, 0, 0, -0.082, 0.253, -103.777, -44.394, -10.878, -23.814,, 0.61713, 0.00119, 0.00198, -0.78677,
 15:10:58.737,d3:c7:8d:a5:a9:b5, 2015-01-01 00:06:26.605, -0.006, -0.002, 1, -0.366, 0, 0, -0.088, 0.253, -103.777, -44.394, -10.878, -23.814,, 0.61713, 0.00119, 0.00198, -0.78677,
 15:10:58.737,d3:c7:8d:a5:a9:b5, 2015-01-01 00:06:26.605, -0.006, -0.003, 0.999, 0.183, -0.061, 0, -0.088, 0.253, -103.777, -44.394, -10.878, -23.814,, 0.61713, 0.00119, 0.00198, -0.78677,
 15:10:58.768,d3:c7:8d:a5:a9:b5, 2015-01-01 00:06:26.605, -0.006, -0.003, 0.999, 0.183, -0.061, 0, -0.088, 0.253, -103.777, -44.394, -10.878, -23.814,, 0.61713, 0.00119, 0.00198, -0.78677,
 15:10:58.768,d3:c7:8d:a5:a9:b5, 2015-01-01 00:06:26.605, -0.006, -0.001, 0.999, 0.122, -0.061, 0, -0.082, 0.253, -103.777, -44.394, -10.878, -23.814,, 0.61713, 0.00119, 0.00198, -0.78677,
 15:10:58.768,d3:c7:8d:a5:a9:b5, 2015-01-01 00:06:26.605, -0.005, -0.001, 0.999, 0.122, -0.061, 0, -0.082, 0.253, -103.777, -44.394, -10.878, -23.814,, 0.61713, 0.00119, 0.00198, -0.78677,
 15:10:58.768,d3:c7:8d:a5:a9:b5, 2015-01-01 00:06:26.605, -0.005, 0, 0.998, 0.244, -0.183, 0, -0.082, 0.247, -103.777, -44.394, -10.878, -23.814,, 0.61713, 0.00119, 0.00198, -0.78677,
 15:10:58.828,d3:c7:8d:a5:a9:b5, 2015-01-01 00:06:26.605, -0.004, 0, 0.998, 0.244, -0.183, 0, -0.077, 0.247, -103.777, -44.394, -10.878, -23.814,, 0.61713, 0.00125, 0.00192, -0.78677,
 15:10:58.828,d3:c7:8d:a5:a9:b5, 2015-01-01 00:06:26.605, -0.004, 0.001, 1, -0.122, 0, 0, -0.077, 0.247, -103.777, -44.394, -10.878, -23.814,, 0.61713, 0.00125, 0.00192, -0.78677,
 15:10:58.828,d3:c7:8d:a5:a9:b5, 2015-01-01 00:06:26.605, -0.002, 0.001, 1, -0.122, 0, 0, -0.077, 0.247, -103.777, -44.394, -10.878, -23.814,, 0.61713, 0.00125, 0.00192, -0.78677,
 15:10:58.828,d3:c7:8d:a5:a9:b5, 2015-01-01 00:06:26.605, -0.002, -0.002, 0.999, -0.244, -0.061, 0, -0.082, 0.247, -103.777, -44.394, -10.878, -23.814,, 0.61713, 0.00125, 0.00192, -0.78677,
 15:10:58.857,d3:c7:8d:a5:a9:b5, 2015-01-01 00:06:26.965, -0.003, -0.002, 0.999, -0.244, -0.061, 0, -0.082, 0.247, -103.777, -44.394, -10.878, -23.814,, 0.61713, 0.00125, 0.00192, -0.78677,
 15:10:58.857,d3:c7:8d:a5:a9:b5, 2015-01-01 00:06:26.965, -0.003, -0.002, 0.999, -0.061, 0, 0, -0.082, 0.247, -103.777, -44.394, -10.878, -23.814,, 0.61713, 0.00125, 0.00192, -0.78677,
 15:10:58.857,d3:c7:8d:a5:a9:b5, 2015-01-01 00:06:26.965, -0.005, -0.002, 0.999, -0.061, 0, 0, -0.082, 0.247, -103.777, -44.394, -10.878, -23.814,, 0.61713, 0.00125, 0.00192, -0.78677,
 15:10:58.857,d3:c7:8d:a5:a9:b5, 2015-01-01 00:06:26.965, -0.005, -0.002, 0.999, 0.061, 0, 0, -0.082, 0.247, -103.777, -44.394, -10.878, -23.814,, 0.61713, 0.00125, 0.00192, -0.78677,
 15:10:58.886,d3:c7:8d:a5:a9:b5, 2015-01-01 00:06:26.965, -0.005, -0.002, 0.999, 0.061, 0, 0, -0.082, 0.247, -103.777, -44.394, -10.878, -23.814,, 0.61713, 0.00125, 0.00192, -0.78677,
 15:10:58.886,d3:c7:8d:a5:a9:b5, 2015-01-01 00:06:26.965, -0.005, -0.001, 0.999, 0.061, -0.122, 0, -0.082, 0.247, -103.777, -44.394, -10.878, -23.814,, 0.61713, 0.00125, 0.00192, -0.78677,
 15:10:58.886,d3:c7:8d:a5:a9:b5, 2015-01-01 00:06:26.965, -0.002, -0.001, 0.999, 0.061, -0.122, 0, -0.082, 0.247, -103.777, -44.394, -10.878, -23.814,, 0.61713, 0.00125, 0.00192, -0.78677,
 15:10:58.886,d3:c7:8d:a5:a9:b5, 2015-01-01 00:06:26.965, -0.002, 0, 0.999, 0, -0.122, 0, -0.082, 0.242, -103.777, -44.394, -10.878, -23.814,, 0.61713, 0.00125, 0.00192, -0.78677,
 15:10:58.947,d3:c7:8d:a5:a9:b5, 2015-01-01 00:06:26.965, -0.004, 0, 0.999, 0, -0.122, 0, -0.082, 0.242, -103.777, -44.394, -10.878, -23.814,, 0.61713, 0.00125, 0.00192, -0.78677,
 15:10:58.947,d3:c7:8d:a5:a9:b5, 2015-01-01 00:06:26.965, -0.004, -0.001, 1, -0.183, 0, 0, -0.082, 0.242, -103.777, -44.394, -10.878, -23.814,, 0.61713, 0.00125, 0.00192, -0.78677,
 15:10:58.947,d3:c7:8d:a5:a9:b5, 2015-01-01 00:06:26.965, -0.006, -0.001, 1, -0.183, 0, 0, -0.082, 0.242, -103.777, -44.394, -10.878, -23.814,, 0.61713, 0.00125, 0.00192, -0.78677,
 15:10:58.947,d3:c7:8d:a5:a9:b5, 2015-01-01 00:06:26.965, -0.006, -0.001, 0.999, 0, -0.061, 0, -0.088, 0.242, -103.777, -44.394, -10.878, -23.814,, 0.61713, 0.00125, 0.00192, -0.78677,
 15:10:58.977,d3:c7:8d:a5:a9:b5, 2015-01-01 00:06:26.965, -0.008, -0.001, 0.999, 0, -0.061, 0, -0.088, 0.242, -103.777, -44.394, -10.878, -23.814,, 0.61713, 0.00125, 0.00192, -0.78677,
 15:10:58.977,d3:c7:8d:a5:a9:b5, 2015-01-01 00:06:26.965, -0.008, 0, 1, -0.244, -0.061, 0, -0.088, 0.242, -103.777, -44.394, -10.878, -23.814,, 0.61713, 0.00125, 0.00192, -0.78677,
 15:10:58.977,d3:c7:8d:a5:a9:b5, 2015-01-01 00:06:26.965, -0.007, 0, 1, -0.244, -0.061, 0, -0.088, 0.242, -103.777, -44.394, -10.878, -23.814,, 0.61713, 0.00125, 0.00192, -0.78677,
 15:10:58.977,d3:c7:8d:a5:a9:b5, 2015-01-01 00:06:26.965, -0.007, -0.002, 0.998, -0.366, -0.305, 0, -0.093, 0.242, -103.777, -44.394, -10.878, -23.814,, 0.61713, 0.00125, 0.00192, -0.78677,
 15:10:59.008,d3:c7:8d:a5:a9:b5, 2015-01-01 00:06:26.965, -0.004, -0.002, 0.998, -0.366, -0.305, 0, -0.093, 0.236, -103.777, -44.394, -10.878, -23.814,, 0.61713, 0.00125, 0.00192, -0.78677,
 15:10:59.008,d3:c7:8d:a5:a9:b5, 2015-01-01 00:06:26.965, -0.004, -0.002, 1, 0, -0.183, 0, -0.099, 0.236, -103.777, -44.394, -10.878, -23.814,, 0.61713, 0.00125, 0.00192, -0.78677,
 15:10:59.008,d3:c7:8d:a5:a9:b5, 2015-01-01 00:06:26.965, -0.001, -0.002, 1, 0, -0.183, 0, -0.099, 0.231, -103.777, -44.394, -10.878, -23.814,, 0.61713, 0.00125, 0.00192, -0.78677,
 15:10:59.008,d3:c7:8d:a5:a9:b5, 2015-01-01 00:06:26.965, -0.001, -0.001, 0.999, 0, -0.183, 0, -0.099, 0.231, -103.777, -44.394, -10.878, -23.814,, 0.61713, 0.00125, 0.00192, -0.78677,
 15:10:59.066,d3:c7:8d:a5:a9:b5, 2015-01-01 00:06:26.965, -0.001, -0.001, 0.999, 0, -0.183, 0, -0.099, 0.231, -103.777, -44.394, -10.878, -23.814,, 0.61713, 0.00125, 0.00192, -0.78677,
 15:10:59.066,d3:c7:8d:a5:a9:b5, 2015-01-01 00:06:26.965, -0.001, -0.002, 1, -0.061, -0.122, 0, -0.099, 0.231, -103.777, -44.394, -10.878, -23.814,, 0.61713, 0.00125, 0.00192, -0.78677,
 15:10:59.066,d3:c7:8d:a5:a9:b5, 2015-01-01 00:06:26.965, 0, -0.002, 1, -0.061, -0.122, 0, -0.099, 0.225, -103.777, -44.394, -10.878, -23.814,, 0.61713, 0.00125, 0.00192, -0.78677,
 15:10:59.066,d3:c7:8d:a5:a9:b5, 2015-01-01 00:06:26.965, 0, -0.003, 0.999, 0.244, -0.122, 0, -0.099, 0.225, -103.777, -44.394, -10.878, -23.814,, 0.61713, 0.00125, 0.00192, -0.78677,
 15:10:59.098,d3:c7:8d:a5:a9:b5, 2015-01-01 00:06:26.965, 0.001, -0.003, 0.999, 0.244, -0.122, 0, -0.093, 0.225, -103.777, -44.394, -10.878, -23.912,, 0.61713, 0.00125, 0.00192, -0.78677,
 15:10:59.098,d3:c7:8d:a5:a9:b5, 2015-01-01 00:06:26.965, 0.001, 0, 0.999, 0.305, 0.183, 0, -0.093, 0.225, -103.777, -44.394, -10.878, -23.912,, 0.61713, 0.00125, 0.00192, -0.78677,
 15:10:59.098,d3:c7:8d:a5:a9:b5, 2015-01-01 00:06:26.965, 0.002, 0, 0.999, 0.305, 0.183, 0, -0.088, 0.225, -103.777, -44.394, -10.878, -23.912,, 0.61713, 0.00125, 0.00192, -0.78677,
 15:10:59.099,d3:c7:8d:a5:a9:b5, 2015-01-01 00:06:26.965, 0.002, 0.002, 1.001, 0.183, 0.671, 0, -0.088, 0.231, -103.777, -44.394, -10.878, -23.912,, 0.61713, 0.00125, 0.00192, -0.78677,
 15:10:59.127,d3:c7:8d:a5:a9:b5, 2015-01-01 00:06:26.965, -0.014, 0.002, 1.001, 0.183, 0.671, 0, -0.082, 0.236, -103.777, -44.394, -10.878, -23.912,, 0.61713, 0.00125, 0.00192, -0.78677,
 15:10:59.127,d3:c7:8d:a5:a9:b5, 2015-01-01 00:06:26.965, -0.014, -0.003, 0.999, -0.488, 0.549, 0, -0.082, 0.242, -103.777, -44.394, -10.878, -23.912,, 0.61713, 0.00125, 0.00192, -0.78677,
 15:10:59.127,d3:c7:8d:a5:a9:b5, 2015-01-01 00:06:26.965, -0.009, -0.003, 0.999, -0.488, 0.549, 0, -0.088, 0.247, -103.777, -44.394, -10.878, -23.912,, 0.61713, 0.00125, 0.00192, -0.78677,
 15:10:59.127,d3:c7:8d:a5:a9:b5, 2015-01-01 00:06:26.965, -0.009, -0.003, 0.996, 0.427, 0, 0, -0.088, 0.247, -103.777, -44.394, -10.878, -23.912,, 0.61713, 0.00125, 0.00192, -0.78677,
 15:10:59.187,d3:c7:8d:a5:a9:b5, 2015-01-01 00:06:26.965, -0.005, -0.003, 0.996, 0.427, 0, 0, -0.088, 0.247, -103.777, -44.394, -10.878, -23.912,, 0.61713, 0.00119, 0.00195, -0.78677,
 15:10:59.187,d3:c7:8d:a5:a9:b5, 2015-01-01 00:06:26.965, -0.005, 0, 1, 0, 0, 0, -0.082, 0.247, -103.777, -44.394, -10.878, -23.912,, 0.61713, 0.00119, 0.00195, -0.78677,
 15:10:59.187,d3:c7:8d:a5:a9:b5, 2015-01-01 00:06:26.965, 0.001, 0, 1, 0, 0, 0, -0.082, 0.247, -103.777, -44.394, -10.878, -23.912,, 0.61713, 0.00119, 0.00195, -0.78677,
 15:10:59.187,d3:c7:8d:a5:a9:b5, 2015-01-01 00:06:26.965, 0.001, -0.003, 0.999, 0.183, 0.061, 0, -0.082, 0.247, -103.777, -44.394, -10.878, -23.912,, 0.61713, 0.00119, 0.00195, -0.78677,
 15:10:59.217,d3:c7:8d:a5:a9:b5, 2015-01-01 00:06:27.320, -0.001, -0.003, 0.999, 0.183, 0.061, 0, -0.082, 0.247, -103.777, -44.394, -10.878, -23.912,, 0.61713, 0.00119, 0.00195, -0.78677,
